File: monitor_Icharger/1charging_1000_4.csv
date;system_time;battery_state;voltage[V];current[mA];capacity[mAh]
2025-09-23;17:24:49;charging;4.197;21;0
2025-09-23;17:24:55;charging;4.202;20;0
2025-09-23;17:25:01;charging;4.203;20;0
2025-09-23;17:25:07;charging;4.197;17;1
2025-09-23;17:25:13;charging;4.197;16;1
2025-09-23;17:25:19;charging;4.197;20;1
2025-09-23;17:25:25;charging;4.197;19;2
2025-09-23;17:25:31;charging;4.197;18;2
2025-09-23;17:25:37;charging;4.197;18;2
2025-09-23;17:25:43;charging;4.196;17;3
2025-09-23;17:25:48;charging;4.201;18;3
2025-09-23;17:25:55;charging;4.197;18;3
2025-09-23;17:26:01;charging;4.197;18;4
2025-09-23;17:26:07;charging;4.197;17;4
2025-09-23;17:26:12;charging;4.196;18;4
2025-09-23;17:26:19;charging;4.197;16;4
2025-09-23;17:26:25;charging;4.197;16;5
2025-09-23;17:26:31;charging;4.204;21;5
2025-09-23;17:26:36;charging;4.197;22;5
2025-09-23;17:26:43;charging;4.196;19;6
2025-09-23;17:26:49;charging;4.197;19;6
2025-09-23;17:26:55;charging;4.197;20;6
2025-09-23;17:27:00;charging;4.197;20;7
2025-09-23;17:27:07;charging;4.197;22;7
2025-09-23;17:27:13;charging;4.197;20;7
2025-09-23;17:27:18;charging;4.197;17;8
2025-09-23;17:27:25;charging;4.197;16;8
2025-09-23;17:27:31;charging;4.197;16;8
2025-09-23;17:27:37;charging;4.197;16;9
2025-09-23;17:27:42;charging;4.197;16;9
2025-09-23;17:27:49;charging;4.197;17;9
2025-09-23;17:27:55;charging;4.197;16;9
2025-09-23;17:28:01;charging;4.197;16;10
2025-09-23;17:28:06;charging;4.197;16;10
2025-09-23;17:28:13;charging;4.197;15;10
2025-09-23;17:28:19;charging;4.197;15;11
2025-09-23;17:28:24;charging;4.196;18;11
2025-09-23;17:28:31;charging;4.197;15;11
2025-09-23;17:28:37;charging;4.197;15;11
2025-09-23;17:28:43;charging;4.197;15;12
2025-09-23;17:28:49;charging;4.196;15;12
2025-09-23;17:28:55;charging;4.197;15;12
2025-09-23;17:29:00;charging;4.197;16;12
2025-09-23;17:29:07;charging;4.197;15;13
2025-09-23;17:29:13;charging;4.197;14;13
2025-09-23;17:29:19;charging;4.197;15;13
2025-09-23;17:29:25;charging;4.203;13;13
2025-09-23;17:29:31;charging;4.197;13;14
2025-09-23;17:29:36;charging;4.197;12;14
2025-09-23;17:29:43;charging;4.196;13;14
2025-09-23;17:29:48;charging;4.197;11;14
2025-09-23;17:29:55;charging;4.197;10;14
2025-09-23;17:30:01;charging;4.197;12;15
2025-09-23;17:30:06;charging;4.205;10;15
2025-09-23;17:30:13;charging;4.197;9;15
2025-09-23;17:30:19;charging;4.197;10;15
2025-09-23;17:30:25;charging;4.2;8;15
2025-09-23;17:30:30;charging;4.196;8;16
2025-09-23;17:30:37;charging;4.196;8;16
2025-09-23;17:30:43;charging;4.196;8;16
2025-09-23;17:30:49;charging;4.202;8;16
2025-09-23;17:30:54;charging;4.197;9;16
2025-09-23;17:31:01;charging;4.202;8;16
2025-09-23;17:31:07;charging;4.197;9;16
2025-09-23;17:31:13;charging;4.197;11;17
2025-09-23;17:31:18;charging;4.197;7;17
2025-09-23;17:31:25;charging;4.197;7;17
2025-09-23;17:31:31;charging;4.197;7;17
2025-09-23;17:31:37;charging;4.197;7;17
2025-09-23;17:31:42;charging;4.197;6;17
2025-09-23;17:31:49;charging;4.196;7;17
2025-09-23;17:31:55;charging;4.197;7;18
2025-09-23;17:32:01;charging;4.197;7;18
2025-09-23;17:32:06;charging;4.197;7;18
2025-09-23;17:32:13;charging;4.197;7;18
2025-09-23;17:32:19;charging;4.197;7;18
2025-09-23;17:32:25;charging;4.197;7;18
2025-09-23;17:32:30;charging;4.196;7;18
2025-09-23;17:32:37;charging;4.196;7;18
2025-09-23;17:32:43;charging;4.197;6;19
2025-09-23;17:32:49;charging;4.197;6;19
2025-09-23;17:32:54;charging;4.197;7;19
2025-09-23;17:33:01;charging;4.197;6;19
2025-09-23;17:33:07;charging;4.197;6;19
2025-09-23;17:33:13;charging;4.197;6;19
2025-09-23;17:33:18;charging;4.197;6;19
2025-09-23;17:33:25;charging;4.197;7;19
2025-09-23;17:33:31;charging;4.197;7;19
2025-09-23;17:33:36;charging;4.197;6;20
2025-09-23;17:33:42;charging;4.197;6;20
2025-09-23;17:33:49;charging;4.197;7;20
2025-09-23;17:33:55;charging;4.196;8;20
2025-09-23;17:34:00;charging;4.197;9;20
2025-09-23;17:34:06;charging;4.197;7;20
2025-09-23;17:34:13;charging;4.197;7;20
2025-09-23;17:34:19;charging;4.196;8;21
2025-09-23;17:34:24;charging;4.197;9;21
2025-09-23;17:34:30;charging;4.197;7;21
2025-09-23;17:34:37;charging;4.196;8;21
2025-09-23;17:34:43;charging;4.196;7;21
2025-09-23;17:34:48;charging;4.197;8;21
2025-09-23;17:34:54;charging;4.196;8;21
2025-09-23;17:35:01;charging;4.197;8;21
2025-09-23;17:35:07;charging;4.197;8;22
2025-09-23;17:35:12;charging;4.197;8;22
2025-09-23;17:35:19;charging;4.197;8;22
2025-09-23;17:35:24;charging;4.196;8;22
2025-09-23;17:35:31;charging;4.196;8;22
2025-09-23;17:35:36;charging;4.203;8;22
2025-09-23;17:35:43;charging;4.2;8;22
2025-09-23;17:35:48;charging;4.199;8;23
2025-09-23;17:35:55;charging;4.2;8;23
2025-09-23;17:36:00;charging;4.202;8;23
2025-09-23;17:36:06;charging;4.197;8;23
2025-09-23;17:36:12;charging;4.197;9;23
2025-09-23;17:36:19;charging;4.205;9;23
2025-09-23;17:36:24;charging;4.197;9;24
2025-09-23;17:36:31;charging;4.197;9;24
2025-09-23;17:36:36;charging;4.197;10;24
2025-09-23;17:36:42;charging;4.197;10;24
2025-09-23;17:36:48;charging;4.197;8;24
2025-09-23;17:36:55;charging;4.197;8;24
2025-09-23;17:37:01;charging;4.19;9;24
2025-09-23;17:37:06;charging;4.191;8;25
2025-09-23;17:37:13;charging;4.189;8;25
2025-09-23;17:37:18;charging;4.189;8;25
2025-09-23;17:37:24;charging;4.2;11;25
2025-09-23;17:37:31;charging;4.194;7;25
2025-09-23;17:37:36;charging;4.19;8;25
2025-09-23;17:37:42;charging;4.193;7;26
2025-09-23;17:37:49;charging;4.19;7;26
2025-09-23;17:37:54;charging;4.19;7;26
2025-09-23;17:38:01;charging;4.199;7;26
2025-09-23;17:38:06;charging;4.195;7;26
2025-09-23;17:38:12;charging;4.205;7;26
2025-09-23;17:38:19;charging;4.191;7;26
2025-09-23;17:38:25;charging;4.195;7;26
2025-09-23;17:38:30;charging;4.194;8;27
2025-09-23;17:38:37;charging;4.194;7;27
2025-09-23;17:38:42;charging;4.195;7;27
2025-09-23;17:38:48;charging;4.195;7;27
2025-09-23;17:38:54;charging;4.198;7;27
2025-09-23;17:39:00;charging;4.197;7;27
2025-09-23;17:39:06;charging;4.197;8;27
2025-09-23;17:39:12;charging;4.196;8;28
2025-09-23;17:39:18;charging;4.203;7;28
2025-09-23;17:39:25;charging;4.197;7;28
2025-09-23;17:39:30;charging;4.197;7;28
2025-09-23;17:39:36;charging;4.197;7;28
2025-09-23;17:39:42;charging;4.197;7;28
2025-09-23;17:39:48;charging;4.196;7;28
2025-09-23;17:39:54;charging;4.196;7;28
2025-09-23;17:40:01;charging;4.197;7;29
2025-09-23;17:40:06;charging;4.197;7;29
2025-09-23;17:40:12;charging;4.196;7;29
2025-09-23;17:40:18;charging;4.196;7;29
2025-09-23;17:40:24;charging;4.196;7;29
2025-09-23;17:40:30;charging;4.202;7;29
2025-09-23;17:40:37;charging;4.196;7;29
2025-09-23;17:40:42;charging;4.197;7;30
2025-09-23;17:40:48;charging;4.198;7;30
2025-09-23;17:40:54;charging;4.197;7;30
2025-09-23;17:41:00;charging;4.196;7;30
2025-09-23;17:41:06;charging;4.2;7;30
2025-09-23;17:41:13;charging;4.201;7;30
2025-09-23;17:41:18;charging;4.2;7;30
2025-09-23;17:41:24;charging;4.196;7;30
2025-09-23;17:41:30;charging;4.199;7;31
2025-09-23;17:41:37;charging;4.2;7;31
2025-09-23;17:41:42;charging;4.202;7;31
2025-09-23;17:41:48;charging;4.198;7;31
2025-09-23;17:41:54;charging;4.196;7;31
2025-09-23;17:42:00;charging;4.204;7;31
2025-09-23;17:42:06;charging;4.198;7;31
2025-09-23;17:42:13;charging;4.196;7;31
2025-09-23;17:42:18;charging;4.196;7;32
2025-09-23;17:42:24;charging;4.196;7;32
2025-09-23;17:42:31;charging;4.196;7;32
2025-09-23;17:42:36;charging;4.197;7;32
2025-09-23;17:42:42;charging;4.197;7;32
2025-09-23;17:42:48;charging;4.197;7;32
2025-09-23;17:42:55;charging;4.196;7;32
2025-09-23;17:43:00;charging;4.2;7;32
2025-09-23;17:43:06;charging;4.197;7;33
2025-09-23;17:43:12;charging;4.196;7;33
2025-09-23;17:43:18;charging;4.197;7;33
2025-09-23;17:43:24;charging;4.197;7;33
2025-09-23;17:43:31;charging;4.196;7;33
2025-09-23;17:43:36;charging;4.196;7;33
2025-09-23;17:43:42;charging;4.196;7;33
2025-09-23;17:43:48;charging;4.196;7;33
2025-09-23;17:43:54;charging;4.197;7;34
2025-09-23;17:44:00;charging;4.197;6;34
2025-09-23;17:44:06;charging;4.196;7;34
2025-09-23;17:44:12;charging;4.196;7;34
2025-09-23;17:44:18;charging;4.197;7;34
2025-09-23;17:44:25;charging;4.196;7;34
2025-09-23;17:44:30;charging;4.196;7;34
2025-09-23;17:44:36;charging;4.196;7;34
2025-09-23;17:44:42;charging;4.196;7;35
2025-09-23;17:44:48;charging;4.197;7;35
2025-09-23;17:44:54;charging;4.196;7;35
2025-09-23;17:45:00;charging;4.197;7;35
2025-09-23;17:45:06;charging;4.196;7;35
2025-09-23;17:45:12;charging;4.197;7;35
2025-09-23;17:45:18;charging;4.196;7;35
2025-09-23;17:45:24;charging;4.197;7;35
2025-09-23;17:45:30;charging;4.197;6;35
2025-09-23;17:45:36;charging;4.198;7;36
2025-09-23;17:45:42;charging;4.197;7;36
2025-09-23;17:45:48;charging;4.196;7;36
2025-09-23;17:45:54;charging;4.198;7;36
2025-09-23;17:46:00;charging;4.196;7;36
2025-09-23;17:46:06;charging;4.196;7;36
2025-09-23;17:46:12;charging;4.197;7;36
2025-09-23;17:46:18;charging;4.196;6;36
2025-09-23;17:46:24;charging;4.196;6;37
2025-09-23;17:46:30;charging;4.196;6;37
2025-09-23;17:46:36;charging;4.196;6;37
2025-09-23;17:46:42;charging;4.196;6;37
2025-09-23;17:46:48;charging;4.196;6;37
2025-09-23;17:46:54;charging;4.196;6;37
2025-09-23;17:47:00;charging;4.196;6;37
2025-09-23;17:47:06;charging;4.196;6;37
2025-09-23;17:47:12;charging;4.197;6;37
2025-09-23;17:47:18;charging;4.196;7;38
2025-09-23;17:47:24;charging;4.196;6;38
2025-09-23;17:47:30;charging;4.197;7;38
2025-09-23;17:47:36;charging;4.196;6;38
2025-09-23;17:47:42;charging;4.197;6;38
2025-09-23;17:47:48;charging;4.197;6;38
2025-09-23;17:47:54;charging;4.196;6;38
2025-09-23;17:48:00;charging;4.197;7;38
2025-09-23;17:48:06;charging;4.197;6;39
2025-09-23;17:48:12;charging;4.196;6;39
2025-09-23;17:48:18;charging;4.196;6;39
2025-09-23;17:48:24;charging;4.196;6;39
2025-09-23;17:48:30;charging;4.197;6;39
2025-09-23;17:48:36;charging;4.197;7;39
2025-09-23;17:48:42;charging;4.196;6;39
2025-09-23;17:48:48;charging;4.197;7;39
2025-09-23;17:48:54;charging;4.197;6;39
2025-09-23;17:49:00;charging;4.197;6;40
2025-09-23;17:49:06;charging;4.196;6;40
2025-09-23;17:49:12;charging;4.196;6;40
2025-09-23;17:49:18;charging;4.197;6;40
2025-09-23;17:49:24;charging;4.196;6;40
2025-09-23;17:49:30;charging;4.197;6;40
2025-09-23;17:49:36;charging;4.197;6;40
2025-09-23;17:49:42;charging;4.197;6;40
2025-09-23;17:49:48;charging;4.197;6;41
2025-09-23;17:49:54;charging;4.197;6;41
2025-09-23;17:50:00;charging;4.197;6;41
2025-09-23;17:50:06;charging;4.196;6;41
2025-09-23;17:50:12;charging;4.196;6;41
2025-09-23;17:50:18;charging;4.196;6;41
2025-09-23;17:50:24;charging;4.197;6;41
2025-09-23;17:50:30;charging;4.196;6;41
2025-09-23;17:50:36;charging;4.197;6;41
2025-09-23;17:50:42;charging;4.197;7;42
2025-09-23;17:50:48;charging;4.196;6;42
2025-09-23;17:50:54;charging;4.197;6;42
2025-09-23;17:51:00;charging;4.197;6;42
2025-09-23;17:51:06;charging;4.196;6;42
2025-09-23;17:51:12;charging;4.197;6;42
2025-09-23;17:51:18;charging;4.197;6;42
2025-09-23;17:51:24;charging;4.196;6;42
2025-09-23;17:51:30;charging;4.196;6;42
2025-09-23;17:51:36;charging;4.197;6;43
2025-09-23;17:51:42;charging;4.197;6;43
2025-09-23;17:51:48;charging;4.196;6;43
2025-09-23;17:51:54;charging;4.197;6;43
2025-09-23;17:52:00;charging;4.196;6;43
2025-09-23;17:52:06;charging;4.196;6;43
2025-09-23;17:52:12;charging;4.197;6;43
2025-09-23;17:52:18;charging;4.197;6;43
2025-09-23;17:52:24;charging;4.197;6;44
2025-09-23;17:52:30;charging;4.197;6;44
2025-09-23;17:52:36;charging;4.196;6;44
2025-09-23;17:52:42;charging;4.197;6;44
2025-09-23;17:52:48;charging;4.196;6;44
2025-09-23;17:52:54;charging;4.196;6;44
2025-09-23;17:53:00;charging;4.196;6;44
2025-09-23;17:53:06;charging;4.197;6;44
2025-09-23;17:53:12;charging;4.196;6;44
2025-09-23;17:53:18;charging;4.196;6;45
2025-09-23;17:53:24;charging;4.197;6;45
2025-09-23;17:53:30;charging;4.197;6;45
2025-09-23;17:53:36;charging;4.197;6;45
2025-09-23;17:53:42;charging;4.197;6;45
2025-09-23;17:53:48;charging;4.197;6;45
2025-09-23;17:53:54;charging;4.197;6;45
2025-09-23;17:54:00;charging;4.196;6;45
2025-09-23;17:54:06;charging;4.197;6;45
2025-09-23;17:54:12;charging;4.196;6;46
2025-09-23;17:54:18;charging;4.196;6;46
2025-09-23;17:54:24;charging;4.197;6;46
2025-09-23;17:54:30;charging;4.197;6;46
2025-09-23;17:54:36;charging;4.197;6;46
2025-09-23;17:54:42;charging;4.197;6;46
2025-09-23;17:54:48;charging;4.196;6;46
2025-09-23;17:54:54;charging;4.196;6;46
2025-09-23;17:55:00;charging;4.196;7;46
2025-09-23;17:55:06;charging;4.197;6;47
2025-09-23;17:55:12;charging;4.196;6;47
2025-09-23;17:55:18;charging;4.196;6;47
2025-09-23;17:55:24;charging;4.196;6;47
2025-09-23;17:55:30;charging;4.196;6;47
2025-09-23;17:55:36;charging;4.197;6;47
2025-09-23;17:55:42;charging;4.196;6;47
2025-09-23;17:55:48;charging;4.197;7;47
2025-09-23;17:55:54;charging;4.197;6;47
2025-09-23;17:56:00;charging;4.197;6;48
2025-09-23;17:56:06;charging;4.196;6;48
2025-09-23;17:56:12;charging;4.197;6;48
2025-09-23;17:56:18;charging;4.197;6;48
2025-09-23;17:56:24;charging;4.196;6;48
2025-09-23;17:56:30;charging;4.197;6;48
2025-09-23;17:56:36;charging;4.197;6;48
2025-09-23;17:56:42;charging;4.197;6;48
2025-09-23;17:56:48;charging;4.197;6;49
2025-09-23;17:56:54;charging;4.197;6;49
2025-09-23;17:57:00;charging;4.197;7;49
2025-09-23;17:57:06;charging;4.197;6;49
2025-09-23;17:57:12;charging;4.197;6;49
2025-09-23;17:57:18;charging;4.196;6;49
2025-09-23;17:57:24;charging;4.197;6;49
2025-09-23;17:57:30;charging;4.197;6;49
2025-09-23;17:57:36;charging;4.197;6;49
2025-09-23;17:57:42;charging;4.196;6;50
2025-09-23;17:57:48;charging;4.196;6;50
2025-09-23;17:57:54;charging;4.197;6;50
2025-09-23;17:58:00;charging;4.192;6;50
2025-09-23;17:58:06;charging;4.2;6;50
2025-09-23;17:58:12;charging;4.198;7;50
2025-09-23;17:58:18;charging;4.197;7;50
2025-09-23;17:58:24;charging;4.201;6;50
2025-09-23;17:58:30;charging;4.198;7;50
2025-09-23;17:58:36;charging;4.198;6;51
2025-09-23;17:58:42;charging;4.191;6;51
2025-09-23;17:58:48;charging;4.195;6;51
2025-09-23;17:58:54;charging;4.188;6;51
2025-09-23;17:59:00;charging;4.195;6;51
2025-09-23;17:59:06;charging;4.195;7;51
2025-09-23;17:59:12;charging;4.197;6;51
2025-09-23;17:59:18;charging;4.198;6;51
2025-09-23;17:59:24;charging;4.194;6;52
2025-09-23;17:59:30;charging;4.186;6;52
2025-09-23;17:59:36;charging;4.195;6;52
2025-09-23;17:59:42;charging;4.196;6;52
2025-09-23;17:59:48;charging;4.196;6;52
2025-09-23;17:59:54;charging;4.195;6;52
2025-09-23;18:00:00;charging;4.202;6;52
2025-09-23;18:00:06;charging;4.196;6;52
2025-09-23;18:00:12;charging;4.196;6;52
2025-09-23;18:00:18;charging;4.197;6;53
2025-09-23;18:00:24;charging;4.196;6;53
2025-09-23;18:00:30;charging;4.196;6;53
2025-09-23;18:00:36;charging;4.196;6;53
2025-09-23;18:00:42;charging;4.197;6;53
2025-09-23;18:00:48;charging;4.197;6;53
2025-09-23;18:00:54;charging;4.197;6;53
2025-09-23;18:01:00;charging;4.196;6;53
2025-09-23;18:01:06;charging;4.197;6;53
2025-09-23;18:01:12;charging;4.196;6;54
2025-09-23;18:01:18;charging;4.197;6;54
2025-09-23;18:01:24;charging;4.197;7;54
2025-09-23;18:01:30;charging;4.196;6;54
2025-09-23;18:01:36;charging;4.196;6;54
2025-09-23;18:01:42;charging;4.196;6;54
2025-09-23;18:01:48;charging;4.196;6;54
2025-09-23;18:01:54;charging;4.196;6;54
2025-09-23;18:02:00;charging;4.197;6;55
2025-09-23;18:02:06;charging;4.196;6;55
2025-09-23;18:02:12;charging;4.197;6;55
2025-09-23;18:02:18;charging;4.197;6;55
2025-09-23;18:02:24;charging;4.197;6;55
2025-09-23;18:02:30;charging;4.197;6;55
2025-09-23;18:02:36;charging;4.197;6;55
2025-09-23;18:02:42;charging;4.197;6;55
2025-09-23;18:02:48;charging;4.197;6;55
2025-09-23;18:02:54;charging;4.196;6;56
2025-09-23;18:03:00;charging;4.196;6;56
2025-09-23;18:03:06;charging;4.197;6;56
2025-09-23;18:03:12;charging;4.196;6;56
2025-09-23;18:03:18;charging;4.196;6;56
2025-09-23;18:03:24;charging;4.197;6;56
2025-09-23;18:03:30;charging;4.196;6;56
2025-09-23;18:03:36;charging;4.197;6;56
2025-09-23;18:03:42;charging;4.196;6;56
2025-09-23;18:03:48;charging;4.197;6;57
2025-09-23;18:03:54;charging;4.197;6;57
2025-09-23;18:04:00;charging;4.197;6;57
2025-09-23;18:04:06;charging;4.196;6;57
2025-09-23;18:04:12;charging;4.197;6;57
2025-09-23;18:04:18;charging;4.196;6;57
2025-09-23;18:04:24;charging;4.196;6;57
2025-09-23;18:04:30;charging;4.197;6;57
2025-09-23;18:04:36;charging;4.197;6;57
2025-09-23;18:04:42;charging;4.197;6;58
2025-09-23;18:04:48;charging;4.196;6;58
2025-09-23;18:04:54;charging;4.196;6;58
2025-09-23;18:05:00;charging;4.196;6;58
2025-09-23;18:05:06;charging;4.196;6;58
2025-09-23;18:05:12;charging;4.196;6;58
2025-09-23;18:05:18;charging;4.197;6;58
2025-09-23;18:05:24;charging;4.197;6;58
2025-09-23;18:05:30;charging;4.196;6;58
2025-09-23;18:05:36;charging;4.197;6;59
2025-09-23;18:05:42;charging;4.196;6;59
2025-09-23;18:05:48;charging;4.197;6;59
2025-09-23;18:05:54;charging;4.197;6;59
2025-09-23;18:06:00;charging;4.197;6;59
2025-09-23;18:06:06;charging;4.197;6;59
2025-09-23;18:06:12;charging;4.197;6;59
2025-09-23;18:06:18;charging;4.197;6;59
2025-09-23;18:06:24;charging;4.197;6;59
2025-09-23;18:06:30;charging;4.197;6;60
2025-09-23;18:06:36;charging;4.197;6;60
2025-09-23;18:06:42;charging;4.197;6;60
2025-09-23;18:06:48;charging;4.197;6;60
2025-09-23;18:06:54;charging;4.197;6;60
2025-09-23;18:07:00;charging;4.197;6;60
2025-09-23;18:07:06;charging;4.197;6;60
2025-09-23;18:07:12;charging;4.196;6;60
2025-09-23;18:07:18;charging;4.196;6;60
2025-09-23;18:07:24;charging;4.196;6;61
2025-09-23;18:07:30;charging;4.196;6;61
2025-09-23;18:07:36;charging;4.197;6;61
2025-09-23;18:07:42;charging;4.197;6;61
2025-09-23;18:07:48;charging;4.197;6;61
2025-09-23;18:07:54;charging;4.196;6;61
2025-09-23;18:08:00;charging;4.197;6;61
2025-09-23;18:08:06;charging;4.197;6;61
2025-09-23;18:08:12;charging;4.197;6;61
2025-09-23;18:08:18;charging;4.196;6;62
2025-09-23;18:08:24;charging;4.197;6;62
2025-09-23;18:08:30;charging;4.197;6;62
2025-09-23;18:08:36;charging;4.197;6;62
2025-09-23;18:08:42;charging;4.196;6;62
2025-09-23;18:08:48;charging;4.197;6;62
2025-09-23;18:08:54;charging;4.197;6;62
2025-09-23;18:09:00;charging;4.197;6;62
2025-09-23;18:09:06;charging;4.197;6;62
2025-09-23;18:09:12;charging;4.197;6;63
2025-09-23;18:09:18;charging;4.197;6;63
2025-09-23;18:09:24;charging;4.197;6;63
2025-09-23;18:09:30;charging;4.197;6;63
2025-09-23;18:09:36;charging;4.197;6;63
2025-09-23;18:09:42;charging;4.196;6;63
2025-09-23;18:09:48;charging;4.197;6;63
2025-09-23;18:09:54;charging;4.197;6;63
2025-09-23;18:10:00;charging;4.197;6;63
2025-09-23;18:10:06;charging;4.197;6;64
2025-09-23;18:10:12;charging;4.197;6;64
2025-09-23;18:10:18;charging;4.197;6;64
2025-09-23;18:10:24;charging;4.197;6;64
2025-09-23;18:10:30;charging;4.197;6;64
2025-09-23;18:10:36;charging;4.197;6;64
2025-09-23;18:10:42;charging;4.197;6;64
2025-09-23;18:10:48;charging;4.197;6;64
2025-09-23;18:10:54;charging;4.197;5;64
2025-09-23;18:11:00;charging;4.197;6;65
2025-09-23;18:11:06;charging;4.196;6;65
2025-09-23;18:11:12;charging;4.197;6;65
2025-09-23;18:11:18;charging;4.197;6;65
2025-09-23;18:11:24;charging;4.197;6;65
2025-09-23;18:11:30;charging;4.196;6;65
2025-09-23;18:11:36;charging;4.196;6;65
2025-09-23;18:11:42;charging;4.196;6;65
2025-09-23;18:11:48;charging;4.197;6;65
2025-09-23;18:11:54;charging;4.197;6;66
2025-09-23;18:12:00;charging;4.196;6;66
2025-09-23;18:12:06;charging;4.197;6;66
2025-09-23;18:12:12;charging;4.197;6;66
2025-09-23;18:12:18;charging;4.197;6;66
2025-09-23;18:12:24;charging;4.197;6;66
2025-09-23;18:12:30;charging;4.197;6;66
2025-09-23;18:12:36;charging;4.197;6;66
2025-09-23;18:12:42;charging;4.197;6;66
2025-09-23;18:12:48;charging;4.196;6;67
2025-09-23;18:12:54;charging;4.197;6;67
2025-09-23;18:13:00;charging;4.197;6;67
2025-09-23;18:13:06;charging;4.197;6;67
2025-09-23;18:13:12;charging;4.197;6;67
2025-09-23;18:13:18;charging;4.197;6;67
2025-09-23;18:13:24;charging;4.197;6;67
2025-09-23;18:13:30;charging;4.197;6;67
2025-09-23;18:13:36;charging;4.197;6;67
2025-09-23;18:13:42;charging;4.197;6;67
2025-09-23;18:13:48;charging;4.197;6;68
2025-09-23;18:13:54;charging;4.197;6;68
2025-09-23;18:14:00;charging;4.196;6;68
2025-09-23;18:14:06;charging;4.197;6;68
2025-09-23;18:14:12;charging;4.197;6;68
2025-09-23;18:14:18;charging;4.197;6;68
2025-09-23;18:14:24;charging;4.197;6;68
2025-09-23;18:14:30;charging;4.197;6;68
2025-09-23;18:14:36;charging;4.197;6;69
2025-09-23;18:14:42;charging;4.196;6;69
2025-09-23;18:14:48;charging;4.197;6;69
2025-09-23;18:14:54;charging;4.197;6;69
2025-09-23;18:15:00;charging;4.196;6;69
2025-09-23;18:15:06;charging;4.197;6;69
2025-09-23;18:15:12;charging;4.197;6;69
2025-09-23;18:15:18;charging;4.197;6;69
2025-09-23;18:15:24;charging;4.197;6;69
2025-09-23;18:15:30;charging;4.197;6;70
2025-09-23;18:15:36;charging;4.197;7;70
2025-09-23;18:15:42;charging;4.196;6;70
2025-09-23;18:15:48;charging;4.197;6;70
2025-09-23;18:15:54;charging;4.197;6;70
2025-09-23;18:16:00;charging;4.197;6;70
2025-09-23;18:16:06;charging;4.197;6;70
2025-09-23;18:16:12;charging;4.197;6;70
2025-09-23;18:16:18;charging;4.196;6;70
2025-09-23;18:16:24;charging;4.196;6;71
2025-09-23;18:16:30;charging;4.196;7;71
2025-09-23;18:16:36;charging;4.197;6;71
2025-09-23;18:16:42;charging;4.197;6;71
2025-09-23;18:16:48;charging;4.197;6;71
2025-09-23;18:16:54;charging;4.197;6;71
2025-09-23;18:17:00;charging;4.197;6;71
2025-09-23;18:17:06;charging;4.197;6;71
2025-09-23;18:17:12;charging;4.197;6;71
2025-09-23;18:17:18;charging;4.196;6;72
2025-09-23;18:17:24;charging;4.197;6;72
2025-09-23;18:17:30;charging;4.197;6;72
2025-09-23;18:17:36;charging;4.196;6;72
2025-09-23;18:17:42;charging;4.197;6;72
2025-09-23;18:17:48;charging;4.196;6;72
2025-09-23;18:17:54;charging;4.197;6;72
2025-09-23;18:18:00;charging;4.197;6;72
2025-09-23;18:18:06;charging;4.197;6;72
2025-09-23;18:18:12;charging;4.197;6;73
2025-09-23;18:18:18;charging;4.197;6;73
2025-09-23;18:18:24;charging;4.197;6;73
2025-09-23;18:18:30;charging;4.197;6;73
2025-09-23;18:18:36;charging;4.197;6;73
2025-09-23;18:18:42;charging;4.197;6;73
2025-09-23;18:18:48;charging;4.197;6;73
2025-09-23;18:18:54;charging;4.197;6;73
2025-09-23;18:19:00;charging;4.197;6;73
2025-09-23;18:19:06;charging;4.197;6;74
2025-09-23;18:19:12;charging;4.197;6;74
2025-09-23;18:19:18;charging;4.196;6;74
2025-09-23;18:19:24;charging;4.197;6;74
2025-09-23;18:19:30;charging;4.196;6;74
2025-09-23;18:19:36;charging;4.197;6;74
2025-09-23;18:19:42;charging;4.197;6;74
2025-09-23;18:19:48;charging;4.197;6;74
2025-09-23;18:19:54;charging;4.196;6;74
2025-09-23;18:20:00;charging;4.196;6;75
2025-09-23;18:20:06;charging;4.197;6;75
2025-09-23;18:20:12;charging;4.197;6;75
2025-09-23;18:20:18;charging;4.196;6;75
2025-09-23;18:20:24;charging;4.197;6;75
2025-09-23;18:20:30;charging;4.197;6;75
2025-09-23;18:20:36;charging;4.19;6;75
2025-09-23;18:20:42;charging;4.194;6;75
2025-09-23;18:20:48;charging;4.191;5;75
2025-09-23;18:20:54;charging;4.196;6;76
2025-09-23;18:21:00;charging;4.194;6;76
2025-09-23;18:21:06;charging;4.188;6;76
2025-09-23;18:21:12;charging;4.197;7;76
2025-09-23;18:21:18;charging;4.198;6;76
2025-09-23;18:21:24;charging;4.198;6;76
2025-09-23;18:21:30;charging;4.194;6;76
2025-09-23;18:21:36;charging;4.189;6;76
2025-09-23;18:21:42;charging;4.192;6;76
2025-09-23;18:21:48;charging;4.191;6;77
2025-09-23;18:21:54;charging;4.19;6;77
2025-09-23;18:22:00;charging;4.19;6;77
2025-09-23;18:22:06;charging;4.196;6;77
2025-09-23;18:22:12;charging;4.192;6;77
2025-09-23;18:22:18;charging;4.196;6;77
2025-09-23;18:22:24;charging;4.196;6;77
2025-09-23;18:22:30;charging;4.19;6;77
2025-09-23;18:22:36;charging;4.197;6;77
2025-09-23;18:22:42;charging;4.196;6;78
2025-09-23;18:22:48;charging;4.197;6;78
2025-09-23;18:22:54;charging;4.197;6;78
2025-09-23;18:23:00;charging;4.197;6;78
2025-09-23;18:23:06;charging;4.197;6;78
2025-09-23;18:23:12;charging;4.197;6;78
2025-09-23;18:23:18;charging;4.197;6;78
2025-09-23;18:23:24;charging;4.196;6;78
2025-09-23;18:23:30;charging;4.196;6;78
2025-09-23;18:23:36;charging;4.197;6;79
2025-09-23;18:23:42;charging;4.197;6;79
2025-09-23;18:23:48;charging;4.197;6;79
2025-09-23;18:23:54;charging;4.197;6;79
2025-09-23;18:24:00;charging;4.197;6;79
2025-09-23;18:24:06;charging;4.197;6;79
2025-09-23;18:24:12;charging;4.197;6;79
2025-09-23;18:24:18;charging;4.197;6;79
2025-09-23;18:24:24;charging;4.197;6;79
2025-09-23;18:24:30;charging;4.196;6;79
2025-09-23;18:24:36;charging;4.197;6;80
2025-09-23;18:24:42;charging;4.197;6;80
2025-09-23;18:24:48;charging;4.197;6;80
2025-09-23;18:24:54;charging;4.197;5;80
2025-09-23;18:25:00;charging;4.197;6;80
2025-09-23;18:25:06;charging;4.197;6;80
2025-09-23;18:25:12;charging;4.197;6;80
2025-09-23;18:25:18;charging;4.197;6;80
2025-09-23;18:25:24;charging;4.196;6;80
2025-09-23;18:25:30;charging;4.197;6;81
2025-09-23;18:25:36;charging;4.197;6;81
2025-09-23;18:25:42;charging;4.196;6;81
2025-09-23;18:25:48;charging;4.197;6;81
2025-09-23;18:25:54;charging;4.197;6;81
2025-09-23;18:26:00;charging;4.197;6;81
2025-09-23;18:26:06;charging;4.197;6;81
2025-09-23;18:26:12;charging;4.197;6;81
2025-09-23;18:26:18;charging;4.197;6;81
2025-09-23;18:26:24;charging;4.197;6;82
2025-09-23;18:26:30;charging;4.197;6;82
2025-09-23;18:26:36;charging;4.197;6;82
2025-09-23;18:26:42;charging;4.197;6;82
2025-09-23;18:26:48;charging;4.197;6;82
2025-09-23;18:26:54;charging;4.197;6;82
2025-09-23;18:27:00;charging;4.197;6;82
2025-09-23;18:27:06;charging;4.197;6;82
2025-09-23;18:27:12;charging;4.197;6;82
2025-09-23;18:27:18;charging;4.197;6;82
2025-09-23;18:27:24;charging;4.197;6;83
2025-09-23;18:27:30;charging;4.197;6;83
2025-09-23;18:27:36;charging;4.197;6;83
2025-09-23;18:27:42;charging;4.197;6;83
2025-09-23;18:27:48;charging;4.197;5;83
2025-09-23;18:27:54;charging;4.197;6;83
2025-09-23;18:28:00;charging;4.197;6;83
2025-09-23;18:28:06;charging;4.196;6;83
2025-09-23;18:28:12;charging;4.197;6;83
2025-09-23;18:28:18;charging;4.197;6;84
2025-09-23;18:28:24;charging;4.197;6;84
2025-09-23;18:28:30;charging;4.197;6;84
2025-09-23;18:28:36;charging;4.197;6;84
2025-09-23;18:28:42;charging;4.197;6;84
2025-09-23;18:28:48;charging;4.197;6;84
2025-09-23;18:28:54;charging;4.197;6;84
2025-09-23;18:29:00;charging;4.197;6;84
2025-09-23;18:29:06;charging;4.197;6;84
2025-09-23;18:29:12;charging;4.197;6;84
2025-09-23;18:29:18;charging;4.197;6;85
2025-09-23;18:29:24;charging;4.197;6;85
2025-09-23;18:29:30;charging;4.197;6;85
2025-09-23;18:29:36;charging;4.197;6;85
2025-09-23;18:29:42;charging;4.197;6;85
2025-09-23;18:29:48;charging;4.197;6;85
2025-09-23;18:29:54;charging;4.197;6;85
2025-09-23;18:30:00;charging;4.197;5;85
2025-09-23;18:30:06;charging;4.197;5;85
2025-09-23;18:30:12;charging;4.197;6;86
2025-09-23;18:30:18;charging;4.197;5;86
2025-09-23;18:30:24;charging;4.197;5;86
2025-09-23;18:30:30;charging;4.197;5;86
2025-09-23;18:30:36;charging;4.197;5;86
2025-09-23;18:30:42;charging;4.197;5;86
2025-09-23;18:30:48;charging;4.197;5;86
2025-09-23;18:30:54;charging;4.197;5;86
2025-09-23;18:31:00;charging;4.197;5;86
2025-09-23;18:31:06;charging;4.197;5;86
2025-09-23;18:31:12;charging;4.197;5;86
2025-09-23;18:31:18;charging;4.197;5;87
2025-09-23;18:31:24;charging;4.197;5;87
2025-09-23;18:31:30;charging;4.197;5;87
2025-09-23;18:31:36;charging;4.197;5;87
2025-09-23;18:31:42;charging;4.197;5;87
2025-09-23;18:31:48;charging;4.197;5;87
2025-09-23;18:31:54;charging;4.197;5;87
2025-09-23;18:32:00;charging;4.197;5;87
2025-09-23;18:32:06;charging;4.197;5;87
2025-09-23;18:32:12;charging;4.197;6;87
2025-09-23;18:32:18;charging;4.197;6;88
2025-09-23;18:32:24;charging;4.197;6;88
2025-09-23;18:32:30;charging;4.197;6;88
2025-09-23;18:32:36;charging;4.197;6;88
2025-09-23;18:32:42;charging;4.197;6;88
2025-09-23;18:32:48;charging;4.197;6;88
2025-09-23;18:32:54;charging;4.197;6;88
2025-09-23;18:33:00;charging;4.197;6;88
2025-09-23;18:33:06;charging;4.197;6;88
2025-09-23;18:33:12;charging;4.196;6;88
2025-09-23;18:33:18;charging;4.197;6;89
2025-09-23;18:33:24;charging;4.197;6;89
2025-09-23;18:33:30;charging;4.197;6;89
2025-09-23;18:33:36;charging;4.197;6;89
2025-09-23;18:33:42;charging;4.197;6;89
2025-09-23;18:33:48;charging;4.197;6;89
2025-09-23;18:33:54;charging;4.197;6;89
2025-09-23;18:34:00;charging;4.197;6;89
2025-09-23;18:34:06;charging;4.197;6;89
2025-09-23;18:34:12;charging;4.197;6;90
2025-09-23;18:34:18;charging;4.197;6;90
2025-09-23;18:34:24;charging;4.197;6;90
2025-09-23;18:34:30;charging;4.197;6;90
2025-09-23;18:34:36;charging;4.197;6;90
2025-09-23;18:34:42;charging;4.197;6;90
2025-09-23;18:34:48;charging;4.197;6;90
2025-09-23;18:34:54;charging;4.197;6;90
2025-09-23;18:35:00;charging;4.197;6;90
2025-09-23;18:35:06;charging;4.196;6;90
2025-09-23;18:35:12;charging;4.196;6;91
2025-09-23;18:35:18;charging;4.197;6;91
2025-09-23;18:35:24;charging;4.197;6;91
2025-09-23;18:35:30;charging;4.196;6;91
2025-09-23;18:35:36;charging;4.196;6;91
2025-09-23;18:35:42;charging;4.197;6;91
2025-09-23;18:35:48;charging;4.197;6;91
2025-09-23;18:35:54;charging;4.197;6;91
2025-09-23;18:36:00;charging;4.197;6;91
2025-09-23;18:36:06;charging;4.197;6;92
2025-09-23;18:36:12;charging;4.197;6;92
2025-09-23;18:36:18;charging;4.197;6;92
2025-09-23;18:36:24;charging;4.197;6;92
2025-09-23;18:36:30;charging;4.197;6;92
2025-09-23;18:36:36;charging;4.197;6;92
2025-09-23;18:36:42;charging;4.197;6;92
2025-09-23;18:36:48;charging;4.197;6;92
2025-09-23;18:36:54;charging;4.197;6;92
2025-09-23;18:37:00;charging;4.196;6;93
2025-09-23;18:37:06;charging;4.197;6;93
2025-09-23;18:37:12;charging;4.197;6;93
2025-09-23;18:37:18;charging;4.197;6;93
2025-09-23;18:37:24;charging;4.197;6;93
2025-09-23;18:37:30;charging;4.197;6;93
2025-09-23;18:37:36;charging;4.197;6;93
2025-09-23;18:37:42;charging;4.197;6;93
2025-09-23;18:37:48;charging;4.197;6;93
2025-09-23;18:37:54;charging;4.197;6;93
2025-09-23;18:38:00;charging;4.197;6;94
2025-09-23;18:38:06;charging;4.197;6;94
2025-09-23;18:38:12;charging;4.196;6;94
2025-09-23;18:38:18;charging;4.197;6;94
2025-09-23;18:38:24;charging;4.197;6;94
2025-09-23;18:38:30;charging;4.197;6;94
2025-09-23;18:38:36;charging;4.196;6;94
2025-09-23;18:38:42;charging;4.197;6;94
2025-09-23;18:38:48;charging;4.197;6;94
2025-09-23;18:38:54;charging;4.197;6;95
2025-09-23;18:39:00;charging;4.197;6;95
2025-09-23;18:39:06;charging;4.197;6;95
2025-09-23;18:39:12;charging;4.197;6;95
2025-09-23;18:39:18;charging;4.196;6;95
2025-09-23;18:39:24;charging;4.197;6;95
2025-09-23;18:39:30;charging;4.197;6;95
2025-09-23;18:39:36;charging;4.197;6;95
2025-09-23;18:39:42;charging;4.197;6;95
2025-09-23;18:39:48;charging;4.197;6;96
2025-09-23;18:39:54;charging;4.197;6;96
2025-09-23;18:40:00;charging;4.196;6;96
2025-09-23;18:40:06;charging;4.197;6;96
2025-09-23;18:40:12;charging;4.197;6;96
2025-09-23;18:40:18;charging;4.197;6;96
2025-09-23;18:40:24;charging;4.197;6;96
2025-09-23;18:40:30;charging;4.197;6;96
2025-09-23;18:40:36;charging;4.197;6;96
2025-09-23;18:40:42;charging;4.197;6;96
2025-09-23;18:40:48;charging;4.197;6;97
2025-09-23;18:40:54;charging;4.197;6;97
2025-09-23;18:41:00;charging;4.197;6;97
2025-09-23;18:41:06;charging;4.197;6;97
2025-09-23;18:41:12;charging;4.197;6;97
2025-09-23;18:41:18;charging;4.197;6;97
2025-09-23;18:41:24;charging;4.197;6;97
2025-09-23;18:41:30;charging;4.197;6;97
2025-09-23;18:41:36;charging;4.197;6;97
2025-09-23;18:41:42;charging;4.197;6;98
2025-09-23;18:41:48;charging;4.197;6;98
2025-09-23;18:41:54;charging;4.197;6;98
2025-09-23;18:42:00;charging;4.197;6;98
2025-09-23;18:42:06;charging;4.197;6;98
2025-09-23;18:42:12;charging;4.197;6;98
2025-09-23;18:42:18;charging;4.197;6;98
2025-09-23;18:42:24;charging;4.197;6;98
2025-09-23;18:42:30;charging;4.197;6;98
2025-09-23;18:42:36;charging;4.197;6;98
2025-09-23;18:42:42;charging;4.197;6;99
2025-09-23;18:42:48;charging;4.197;6;99
2025-09-23;18:42:54;charging;4.197;6;99
2025-09-23;18:43:00;charging;4.197;6;99
2025-09-23;18:43:06;charging;4.197;6;99
2025-09-23;18:43:12;charging;4.197;6;99
2025-09-23;18:43:18;charging;4.197;6;99
2025-09-23;18:43:24;charging;4.197;6;99
2025-09-23;18:43:30;charging;4.197;6;99
2025-09-23;18:43:36;charging;4.197;6;100
2025-09-23;18:43:42;charging;4.197;6;100
2025-09-23;18:43:48;charging;4.197;6;100
2025-09-23;18:43:54;charging;4.197;6;100
2025-09-23;18:44:00;charging;4.197;6;100
2025-09-23;18:44:06;charging;4.197;6;100
2025-09-23;18:44:12;charging;4.197;6;100
2025-09-23;18:44:18;charging;4.197;6;100
2025-09-23;18:44:24;charging;4.194;5;100
2025-09-23;18:44:30;charging;4.196;6;100
2025-09-23;18:44:36;charging;4.193;6;101
2025-09-23;18:44:42;charging;4.188;5;101
2025-09-23;18:44:48;charging;4.19;5;101
2025-09-23;18:44:54;charging;4.189;5;101
2025-09-23;18:45:00;charging;4.188;5;101
2025-09-23;18:45:06;charging;4.188;5;101
2025-09-23;18:45:12;charging;4.194;6;101
2025-09-23;18:45:18;charging;4.192;5;101
2025-09-23;18:45:24;charging;4.189;5;101
2025-09-23;18:45:30;charging;4.192;6;102
2025-09-23;18:45:36;charging;4.197;6;102
2025-09-23;18:45:42;charging;4.193;5;102
2025-09-23;18:45:48;charging;4.194;6;102
2025-09-23;18:45:54;charging;4.195;5;102
2025-09-23;18:46:00;charging;4.198;6;102
2025-09-23;18:46:06;charging;4.195;6;102
2025-09-23;18:46:12;charging;4.203;6;102
2025-09-23;18:46:18;charging;4.188;5;102
2025-09-23;18:46:24;charging;4.197;6;102
2025-09-23;18:46:30;charging;4.197;6;103
2025-09-23;18:46:36;charging;4.197;6;103
2025-09-23;18:46:42;charging;4.197;6;103
2025-09-23;18:46:48;charging;4.197;6;103
2025-09-23;18:46:54;charging;4.197;6;103
2025-09-23;18:47:00;charging;4.197;6;103
2025-09-23;18:47:06;charging;4.197;6;103
2025-09-23;18:47:12;charging;4.197;6;103
2025-09-23;18:47:18;charging;4.197;6;103
2025-09-23;18:47:24;charging;4.197;6;103
2025-09-23;18:47:30;charging;4.197;6;104
2025-09-23;18:47:36;charging;4.197;6;104
2025-09-23;18:47:42;charging;4.197;6;104
2025-09-23;18:47:48;charging;4.196;6;104
2025-09-23;18:47:54;charging;4.196;6;104
2025-09-23;18:48:00;charging;4.197;6;104
2025-09-23;18:48:06;charging;4.197;6;104
2025-09-23;18:48:12;charging;4.197;6;104
2025-09-23;18:48:18;charging;4.197;6;104
2025-09-23;18:48:24;charging;4.197;6;105
2025-09-23;18:48:30;charging;4.196;6;105
2025-09-23;18:48:36;charging;4.197;6;105
2025-09-23;18:48:42;charging;4.197;6;105
2025-09-23;18:48:48;charging;4.197;6;105
2025-09-23;18:48:54;charging;4.197;6;105
2025-09-23;18:49:00;charging;4.197;6;105
2025-09-23;18:49:06;charging;4.197;6;105
2025-09-23;18:49:12;charging;4.197;6;105
2025-09-23;18:49:18;charging;4.196;6;105
2025-09-23;18:49:24;charging;4.197;6;106
2025-09-23;18:49:30;charging;4.197;6;106
2025-09-23;18:49:36;charging;4.197;6;106
2025-09-23;18:49:42;charging;4.197;6;106
2025-09-23;18:49:48;charging;4.197;6;106
2025-09-23;18:49:54;charging;4.197;6;106
2025-09-23;18:50:00;charging;4.197;6;106
2025-09-23;18:50:06;charging;4.197;6;106
2025-09-23;18:50:12;charging;4.197;6;106
2025-09-23;18:50:18;charging;4.197;6;106
2025-09-23;18:50:24;charging;4.197;6;107
2025-09-23;18:50:30;charging;4.196;6;107
2025-09-23;18:50:36;charging;4.197;6;107
2025-09-23;18:50:42;charging;4.197;6;107
2025-09-23;18:50:48;charging;4.197;6;107
2025-09-23;18:50:54;charging;4.197;6;107
2025-09-23;18:51:00;charging;4.197;6;107
2025-09-23;18:51:06;charging;4.196;6;107
2025-09-23;18:51:12;charging;4.197;6;107
2025-09-23;18:51:18;charging;4.197;6;107
2025-09-23;18:51:24;charging;4.197;6;108
2025-09-23;18:51:30;charging;4.197;6;108
2025-09-23;18:51:36;charging;4.197;6;108
2025-09-23;18:51:42;charging;4.197;6;108
2025-09-23;18:51:48;charging;4.197;6;108
2025-09-23;18:51:54;charging;4.197;6;108
2025-09-23;18:52:00;charging;4.197;6;108
2025-09-23;18:52:06;charging;4.197;6;108
2025-09-23;18:52:12;charging;4.197;6;108
2025-09-23;18:52:18;charging;4.197;5;109
2025-09-23;18:52:24;charging;4.197;5;109
2025-09-23;18:52:30;charging;4.197;5;109
2025-09-23;18:52:36;charging;4.197;5;109
2025-09-23;18:52:42;charging;4.197;6;109
2025-09-23;18:52:48;charging;4.197;6;109
2025-09-23;18:52:54;charging;4.197;6;109
2025-09-23;18:53:00;charging;4.197;6;109
2025-09-23;18:53:06;charging;4.197;6;109
2025-09-23;18:53:12;charging;4.197;6;109
2025-09-23;18:53:18;charging;4.197;6;110
2025-09-23;18:53:24;charging;4.197;6;110
2025-09-23;18:53:30;charging;4.197;6;110
2025-09-23;18:53:36;charging;4.197;6;110
2025-09-23;18:53:42;charging;4.197;6;110
2025-09-23;18:53:48;charging;4.197;6;110
2025-09-23;18:53:54;charging;4.197;6;110
2025-09-23;18:54:00;charging;4.197;6;110
2025-09-23;18:54:06;charging;4.197;6;110
2025-09-23;18:54:12;charging;4.197;6;110
2025-09-23;18:54:18;charging;4.197;6;111
2025-09-23;18:54:24;charging;4.197;5;111
2025-09-23;18:54:30;charging;4.197;5;111
2025-09-23;18:54:36;charging;4.197;6;111
2025-09-23;18:54:42;charging;4.197;5;111
2025-09-23;18:54:48;charging;4.197;6;111
2025-09-23;18:54:54;charging;4.197;5;111
2025-09-23;18:55:00;charging;4.197;5;111
2025-09-23;18:55:06;charging;4.197;5;111
2025-09-23;18:55:12;charging;4.197;5;111
2025-09-23;18:55:18;charging;4.197;5;112
2025-09-23;18:55:24;charging;4.197;5;112
2025-09-23;18:55:30;charging;4.197;5;112
2025-09-23;18:55:36;charging;4.197;5;112
2025-09-23;18:55:42;charging;4.197;5;112
2025-09-23;18:55:48;charging;4.197;6;112
2025-09-23;18:55:54;charging;4.197;5;112
2025-09-23;18:56:00;charging;4.197;5;112
2025-09-23;18:56:06;charging;4.197;5;112
2025-09-23;18:56:12;charging;4.197;5;112
2025-09-23;18:56:18;charging;4.197;5;113
2025-09-23;18:56:24;charging;4.197;5;113
2025-09-23;18:56:30;charging;4.197;6;113
2025-09-23;18:56:36;charging;4.197;5;113
2025-09-23;18:56:42;charging;4.197;5;113
2025-09-23;18:56:48;charging;4.197;6;113
2025-09-23;18:56:54;charging;4.197;5;113
2025-09-23;18:57:00;charging;4.197;5;113
2025-09-23;18:57:06;charging;4.197;5;113
2025-09-23;18:57:12;charging;4.197;5;113
2025-09-23;18:57:18;charging;4.197;5;114
2025-09-23;18:57:24;charging;4.197;5;114
2025-09-23;18:57:30;charging;4.197;5;114
2025-09-23;18:57:36;charging;4.197;5;114
2025-09-23;18:57:42;charging;4.197;5;114
2025-09-23;18:57:48;charging;4.197;5;114
2025-09-23;18:57:54;charging;4.197;5;114
2025-09-23;18:58:00;charging;4.197;5;114
2025-09-23;18:58:06;charging;4.197;5;114
2025-09-23;18:58:12;charging;4.197;5;114
2025-09-23;18:58:18;charging;4.197;5;115
2025-09-23;18:58:24;charging;4.197;5;115
2025-09-23;18:58:30;charging;4.197;5;115
2025-09-23;18:58:36;charging;4.197;5;115
2025-09-23;18:58:42;charging;4.197;5;115
2025-09-23;18:58:48;charging;4.197;5;115
2025-09-23;18:58:54;charging;4.197;5;115
2025-09-23;18:59:00;charging;4.197;6;115
2025-09-23;18:59:06;charging;4.197;6;115
2025-09-23;18:59:12;charging;4.197;5;115
2025-09-23;18:59:18;charging;4.197;5;116
2025-09-23;18:59:24;charging;4.197;5;116
2025-09-23;18:59:30;charging;4.197;5;116
2025-09-23;18:59:36;charging;4.197;5;116
2025-09-23;18:59:42;charging;4.197;5;116
2025-09-23;18:59:48;charging;4.197;5;116
2025-09-23;18:59:54;charging;4.197;5;116
2025-09-23;19:00:00;charging;4.197;5;116
2025-09-23;19:00:06;charging;4.197;5;116
2025-09-23;19:00:12;charging;4.197;6;116
2025-09-23;19:00:18;charging;4.197;6;117
2025-09-23;19:00:24;charging;4.197;6;117
2025-09-23;19:00:30;charging;4.197;6;117
2025-09-23;19:00:36;charging;4.197;6;117
2025-09-23;19:00:42;charging;4.197;6;117
2025-09-23;19:00:48;charging;4.197;6;117
2025-09-23;19:00:54;charging;4.196;6;117
2025-09-23;19:01:00;charging;4.197;6;117
2025-09-23;19:01:06;charging;4.197;6;117
2025-09-23;19:01:12;charging;4.197;6;117
2025-09-23;19:01:18;charging;4.197;6;118
2025-09-23;19:01:24;charging;4.197;6;118
2025-09-23;19:01:30;charging;4.197;6;118
2025-09-23;19:01:36;charging;4.197;6;118
2025-09-23;19:01:42;charging;4.197;6;118
2025-09-23;19:01:48;charging;4.197;5;118
2025-09-23;19:01:54;charging;4.197;5;118
2025-09-23;19:02:00;charging;4.197;5;118
2025-09-23;19:02:06;charging;4.197;5;118
2025-09-23;19:02:12;charging;4.197;5;118
2025-09-23;19:02:18;charging;4.197;5;119
2025-09-23;19:02:24;charging;4.197;5;119
2025-09-23;19:02:30;charging;4.197;5;119
2025-09-23;19:02:36;charging;4.197;5;119
2025-09-23;19:02:42;charging;4.197;5;119
2025-09-23;19:02:48;charging;4.197;5;119
2025-09-23;19:02:54;charging;4.197;5;119
2025-09-23;19:03:00;charging;4.197;5;119
2025-09-23;19:03:06;charging;4.197;5;119
2025-09-23;19:03:12;charging;4.197;5;119
2025-09-23;19:03:18;charging;4.197;5;119
2025-09-23;19:03:24;charging;4.197;5;120
2025-09-23;19:03:30;charging;4.197;5;120
2025-09-23;19:03:36;charging;4.197;5;120
2025-09-23;19:03:42;charging;4.197;5;120
2025-09-23;19:03:48;charging;4.197;5;120
2025-09-23;19:03:54;charging;4.197;5;120
2025-09-23;19:04:00;charging;4.197;5;120
2025-09-23;19:04:06;charging;4.197;5;120
2025-09-23;19:04:12;charging;4.197;5;120
2025-09-23;19:04:18;charging;4.197;5;120
2025-09-23;19:04:24;charging;4.197;5;120
2025-09-23;19:04:30;charging;4.197;5;121
2025-09-23;19:04:36;charging;4.197;6;121
2025-09-23;19:04:42;charging;4.197;6;121
2025-09-23;19:04:48;charging;4.197;5;121
2025-09-23;19:04:54;charging;4.197;5;121
2025-09-23;19:05:00;charging;4.197;5;121
2025-09-23;19:05:06;charging;4.197;5;121
2025-09-23;19:05:12;charging;4.197;6;121
2025-09-23;19:05:18;charging;4.197;6;121
2025-09-23;19:05:24;charging;4.197;6;121
2025-09-23;19:05:30;charging;4.197;6;122
2025-09-23;19:05:36;charging;4.197;5;122
2025-09-23;19:05:42;charging;4.197;5;122
2025-09-23;19:05:48;charging;4.197;5;122
2025-09-23;19:05:54;charging;4.197;5;122
2025-09-23;19:06:00;charging;4.197;5;122
2025-09-23;19:06:06;charging;4.197;5;122
2025-09-23;19:06:12;charging;4.197;5;122
2025-09-23;19:06:18;charging;4.197;5;122
2025-09-23;19:06:24;charging;4.197;5;122
2025-09-23;19:06:30;charging;4.197;5;122
2025-09-23;19:06:36;charging;4.197;5;123
2025-09-23;19:06:42;charging;4.197;5;123
2025-09-23;19:06:48;charging;4.197;5;123
2025-09-23;19:06:54;charging;4.197;5;123
2025-09-23;19:07:00;charging;4.197;5;123
2025-09-23;19:07:06;charging;4.197;5;123
2025-09-23;19:07:12;charging;4.197;5;123
2025-09-23;19:07:18;charging;4.197;5;123
2025-09-23;19:07:24;charging;4.197;6;123
2025-09-23;19:07:30;charging;4.197;6;123
2025-09-23;19:07:36;charging;4.197;6;123
2025-09-23;19:07:42;charging;4.197;6;124
2025-09-23;19:07:48;charging;4.197;6;124
2025-09-23;19:07:54;charging;4.197;5;124
2025-09-23;19:08:00;charging;4.197;5;124
2025-09-23;19:08:06;charging;4.197;5;124
2025-09-23;19:08:12;charging;4.197;6;124
2025-09-23;19:08:18;charging;4.197;6;124
2025-09-23;19:08:24;charging;4.197;5;124
2025-09-23;19:08:30;charging;4.197;5;124
2025-09-23;19:08:36;charging;4.197;5;124
2025-09-23;19:08:42;charging;4.197;5;125
2025-09-23;19:08:48;charging;4.197;5;125
2025-09-23;19:08:54;charging;4.197;5;125
2025-09-23;19:09:00;charging;4.197;5;125
2025-09-23;19:09:06;charging;4.197;5;125
2025-09-23;19:09:12;charging;4.197;5;125
2025-09-23;19:09:18;charging;4.197;5;125
2025-09-23;19:09:24;charging;4.197;5;125
2025-09-23;19:09:30;charging;4.197;5;125
2025-09-23;19:09:36;charging;4.197;5;125
2025-09-23;19:09:42;charging;4.197;5;125
2025-09-23;19:09:48;charging;4.197;5;126
2025-09-23;19:09:54;charging;4.197;5;126
2025-09-23;19:10:00;charging;4.197;5;126
2025-09-23;19:10:06;charging;4.197;5;126
2025-09-23;19:10:12;charging;4.197;5;126
2025-09-23;19:10:18;charging;4.197;5;126
2025-09-23;19:10:24;charging;4.197;6;126
2025-09-23;19:10:30;charging;4.197;5;126
2025-09-23;19:10:36;charging;4.197;5;126
2025-09-23;19:10:42;charging;4.197;5;126
2025-09-23;19:10:48;charging;4.197;5;126
2025-09-23;19:10:54;charging;4.197;4;127
2025-09-23;19:11:00;charging;4.197;4;127
2025-09-23;19:11:06;charging;4.197;4;127
2025-09-23;19:11:12;charging;4.197;4;127
2025-09-23;19:11:18;charging;4.197;4;127
2025-09-23;19:11:24;charging;4.197;5;127
2025-09-23;19:11:30;charging;4.197;4;127
2025-09-23;19:11:36;charging;4.197;4;127
2025-09-23;19:11:42;charging;4.197;4;127
2025-09-23;19:11:48;charging;4.197;4;127
2025-09-23;19:11:54;charging;4.197;4;127
2025-09-23;19:12:00;charging;4.197;4;127
2025-09-23;19:12:06;rest;3.85;0;127