File: monitor_Icharger/1charging_1_2.csv
date;time;battery_state;voltage[V];current[mA];capacity[mAh]
2025-09-23;09:01:20;charging;4.197;24;0
2025-09-23;09:01:38;charging;4.197;24;1
2025-09-23;09:01:56;charging;4.197;23;2
2025-09-23;09:02:14;charging;4.197;23;3
2025-09-23;09:02:32;charging;4.197;23;5
2025-09-23;09:02:50;charging;4.197;23;6
2025-09-23;09:03:08;charging;4.197;23;7
2025-09-23;09:03:26;charging;4.197;23;8
2025-09-23;09:03:44;charging;4.197;23;9
2025-09-23;09:04:02;charging;4.197;23;11
2025-09-23;09:04:20;charging;4.197;23;12
2025-09-23;09:04:38;charging;4.197;23;13
2025-09-23;09:04:56;charging;4.197;23;14
2025-09-23;09:05:14;charging;4.197;23;15
2025-09-23;09:05:32;charging;4.197;23;17
2025-09-23;09:05:50;charging;4.197;23;18
2025-09-23;09:06:08;charging;4.197;23;19
2025-09-23;09:06:26;charging;4.197;23;20
2025-09-23;09:06:44;charging;4.197;23;21
2025-09-23;09:07:02;charging;4.197;23;22
2025-09-23;09:07:20;charging;4.197;23;24
2025-09-23;09:07:38;charging;4.197;23;25
2025-09-23;09:07:56;charging;4.197;23;26
2025-09-23;09:08:14;charging;4.197;23;27
2025-09-23;09:08:32;charging;4.197;23;28
2025-09-23;09:08:50;charging;4.197;23;29
2025-09-23;09:09:08;charging;4.197;23;31
2025-09-23;09:09:26;charging;4.197;23;32
2025-09-23;09:09:44;charging;4.197;23;33
2025-09-23;09:10:02;charging;4.197;23;34
2025-09-23;09:10:20;charging;4.197;23;35
2025-09-23;09:10:38;charging;4.197;22;36
2025-09-23;09:10:56;charging;4.197;22;37
2025-09-23;09:11:14;charging;4.197;22;39
2025-09-23;09:11:32;charging;4.197;22;40
2025-09-23;09:11:50;charging;4.197;22;41
2025-09-23;09:12:08;charging;4.197;22;42
2025-09-23;09:12:26;charging;4.197;22;43
2025-09-23;09:12:44;charging;4.197;22;44
2025-09-23;09:13:02;charging;4.197;22;46
2025-09-23;09:13:20;charging;4.197;22;47
2025-09-23;09:13:38;charging;4.197;22;48
2025-09-23;09:13:56;charging;4.197;22;49
2025-09-23;09:14:14;charging;4.197;22;50
2025-09-23;09:14:32;charging;4.197;22;51
2025-09-23;09:14:50;charging;4.197;22;52
2025-09-23;09:15:08;charging;4.197;22;54
2025-09-23;09:15:25;charging;4.197;22;55
2025-09-23;09:15:43;charging;4.197;22;56
2025-09-23;09:16:02;charging;4.197;22;57
2025-09-23;09:16:20;charging;4.197;22;58
2025-09-23;09:16:38;charging;4.197;22;59
2025-09-23;09:16:56;charging;4.197;22;60
2025-09-23;09:17:14;charging;4.197;22;61
2025-09-23;09:17:32;charging;4.197;22;63
2025-09-23;09:17:50;charging;4.197;22;64
2025-09-23;09:18:07;charging;4.197;22;65
2025-09-23;09:18:25;charging;4.197;22;66
2025-09-23;09:18:44;charging;4.197;22;67
2025-09-23;09:19:01;charging;4.197;22;68
2025-09-23;09:19:20;charging;4.197;22;69
2025-09-23;09:19:38;charging;4.197;22;70
2025-09-23;09:19:56;charging;4.197;22;71
2025-09-23;09:20:14;charging;4.197;22;73
2025-09-23;09:20:31;charging;4.197;22;74
2025-09-23;09:20:49;charging;4.197;22;75
2025-09-23;09:21:08;charging;4.197;22;76
2025-09-23;09:21:25;charging;4.197;22;77
2025-09-23;09:21:44;charging;4.197;22;78
2025-09-23;09:22:01;charging;4.197;22;79
2025-09-23;09:22:20;charging;4.197;22;80
2025-09-23;09:22:38;charging;4.197;22;81
2025-09-23;09:22:56;charging;4.197;21;83
2025-09-23;09:23:14;charging;4.197;21;84
2025-09-23;09:23:31;charging;4.197;21;85
2025-09-23;09:23:50;charging;4.197;21;86
2025-09-23;09:24:08;charging;4.197;21;87
2025-09-23;09:24:26;charging;4.197;21;88
2025-09-23;09:24:44;charging;4.197;21;89
2025-09-23;09:25:01;charging;4.197;21;90
2025-09-23;09:25:20;charging;4.197;21;91
2025-09-23;09:25:38;charging;4.197;21;92
2025-09-23;09:25:56;charging;4.197;21;94
2025-09-23;09:26:14;charging;4.203;21;95
2025-09-23;09:26:32;charging;4.202;21;96
2025-09-23;09:26:50;charging;4.196;21;97
2025-09-23;09:27:07;charging;4.197;21;98
2025-09-23;09:27:26;charging;4.197;21;99
2025-09-23;09:27:44;charging;4.197;21;100
2025-09-23;09:28:01;charging;4.205;21;101
2025-09-23;09:28:20;charging;4.203;21;102
2025-09-23;09:28:38;charging;4.197;21;103
2025-09-23;09:28:56;charging;4.197;21;104
2025-09-23;09:29:13;charging;4.197;21;105
2025-09-23;09:29:32;charging;4.197;21;107
2025-09-23;09:29:49;charging;4.197;21;108
2025-09-23;09:30:07;charging;4.196;21;109
2025-09-23;09:30:25;charging;4.203;21;110
2025-09-23;09:30:44;charging;4.197;21;111
2025-09-23;09:31:02;charging;4.204;21;112
2025-09-23;09:31:19;charging;4.202;21;113
2025-09-23;09:31:37;charging;4.197;21;114
2025-09-23;09:31:56;charging;4.197;21;115
2025-09-23;09:32:13;charging;4.197;21;116
2025-09-23;09:32:31;charging;4.204;21;117
2025-09-23;09:32:50;charging;4.197;21;118
2025-09-23;09:33:08;charging;4.201;21;119
2025-09-23;09:33:26;charging;4.197;21;120
2025-09-23;09:33:43;charging;4.197;21;121
2025-09-23;09:34:01;charging;4.197;21;123
2025-09-23;09:34:19;charging;4.197;20;124
2025-09-23;09:34:37;charging;4.201;20;125
2025-09-23;09:34:55;charging;4.205;20;126
2025-09-23;09:35:13;charging;4.197;20;127
2025-09-23;09:35:32;charging;4.203;20;128
2025-09-23;09:35:49;charging;4.196;20;129
2025-09-23;09:36:07;charging;4.197;20;130
2025-09-23;09:36:25;charging;4.196;20;131
2025-09-23;09:36:43;charging;4.196;20;132
2025-09-23;09:37:01;charging;4.197;20;133
2025-09-23;09:37:19;charging;4.197;20;134
2025-09-23;09:37:37;charging;4.198;20;135
2025-09-23;09:37:55;charging;4.197;20;136
2025-09-23;09:38:14;charging;4.197;20;137
2025-09-23;09:38:31;charging;4.197;20;138
2025-09-23;09:38:50;charging;4.197;20;139
2025-09-23;09:39:07;charging;4.201;20;140
2025-09-23;09:39:26;charging;4.197;20;141
2025-09-23;09:39:43;charging;4.197;20;142
2025-09-23;09:40:01;charging;4.197;20;143
2025-09-23;09:40:19;charging;4.203;20;144
2025-09-23;09:40:37;charging;4.197;20;145
2025-09-23;09:40:55;charging;4.197;20;147
2025-09-23;09:41:13;charging;4.197;20;148
2025-09-23;09:41:31;charging;4.202;20;149
2025-09-23;09:41:49;charging;4.197;20;150
2025-09-23;09:42:07;charging;4.197;20;151
2025-09-23;09:42:25;charging;4.197;20;152
2025-09-23;09:42:43;charging;4.203;20;153
2025-09-23;09:43:01;charging;4.197;20;154
2025-09-23;09:43:19;charging;4.203;20;155
2025-09-23;09:43:37;charging;4.201;20;156
2025-09-23;09:43:55;charging;4.203;20;157
2025-09-23;09:44:13;charging;4.196;20;158
2025-09-23;09:44:31;charging;4.196;19;159
2025-09-23;09:44:49;charging;4.203;20;160
2025-09-23;09:45:07;charging;4.196;19;161
2025-09-23;09:45:25;charging;4.197;20;162
2025-09-23;09:45:43;charging;4.197;19;163
2025-09-23;09:46:01;charging;4.203;20;164
2025-09-23;09:46:19;charging;4.197;19;165
2025-09-23;09:46:37;charging;4.197;20;166
2025-09-23;09:46:55;charging;4.197;19;167
2025-09-23;09:47:13;charging;4.197;19;168
2025-09-23;09:47:31;charging;4.197;19;169
2025-09-23;09:47:49;charging;4.2;19;170
2025-09-23;09:48:07;charging;4.201;19;171
2025-09-23;09:48:25;charging;4.197;19;172
2025-09-23;09:48:43;charging;4.2;19;173
2025-09-23;09:49:01;charging;4.204;19;174
2025-09-23;09:49:19;charging;4.201;19;175
2025-09-23;09:49:37;charging;4.201;19;176
2025-09-23;09:49:55;charging;4.197;19;177
2025-09-23;09:50:13;charging;4.199;19;178
2025-09-23;09:50:31;charging;4.2;19;179
2025-09-23;09:50:49;charging;4.199;19;180
2025-09-23;09:51:07;charging;4.201;19;181
2025-09-23;09:51:25;charging;4.197;19;182
2025-09-23;09:51:43;charging;4.2;19;183
2025-09-23;09:52:01;charging;4.197;19;184
2025-09-23;09:52:19;charging;4.203;19;185
2025-09-23;09:52:37;charging;4.202;19;186
2025-09-23;09:52:55;charging;4.197;19;187
2025-09-23;09:53:13;charging;4.196;19;188
2025-09-23;09:53:31;charging;4.203;19;189
2025-09-23;09:53:49;charging;4.198;19;190
2025-09-23;09:54:07;charging;4.197;19;191
2025-09-23;09:54:25;charging;4.197;19;192
2025-09-23;09:54:43;charging;4.202;19;193
2025-09-23;09:55:01;charging;4.199;19;194
2025-09-23;09:55:19;charging;4.197;19;195
2025-09-23;09:55:37;charging;4.196;19;196
2025-09-23;09:55:55;charging;4.196;19;197
2025-09-23;09:56:13;charging;4.196;19;198
2025-09-23;09:56:31;charging;4.197;19;199
2025-09-23;09:56:49;charging;4.202;19;200
2025-09-23;09:57:07;charging;4.197;19;201
2025-09-23;09:57:25;charging;4.196;18;202
2025-09-23;09:57:43;charging;4.197;19;203
2025-09-23;09:58:01;charging;4.196;19;203
2025-09-23;09:58:19;charging;4.196;19;204
2025-09-23;09:58:37;charging;4.196;19;205
2025-09-23;09:58:55;charging;4.197;19;206
2025-09-23;09:59:13;charging;4.196;18;207
2025-09-23;09:59:31;charging;4.196;18;208
2025-09-23;09:59:49;charging;4.197;18;209
2025-09-23;10:00:07;charging;4.199;19;210
2025-09-23;10:00:25;charging;4.196;18;211
2025-09-23;10:00:43;charging;4.197;18;212
2025-09-23;10:01:01;charging;4.198;18;213
2025-09-23;10:01:19;charging;4.197;19;214
2025-09-23;10:01:37;charging;4.195;18;215
2025-09-23;10:01:55;charging;4.201;19;216
2025-09-23;10:02:13;charging;4.198;18;217
2025-09-23;10:02:31;charging;4.197;18;218
2025-09-23;10:02:49;charging;4.196;18;219
2025-09-23;10:03:07;charging;4.197;18;220
2025-09-23;10:03:25;charging;4.196;19;221
2025-09-23;10:03:43;charging;4.196;18;222
2025-09-23;10:04:01;charging;4.196;19;223
2025-09-23;10:04:19;charging;4.197;19;224
2025-09-23;10:04:37;charging;4.196;18;225
2025-09-23;10:04:55;charging;4.196;19;226
2025-09-23;10:05:13;charging;4.197;18;227
2025-09-23;10:05:31;charging;4.197;18;227
2025-09-23;10:05:49;charging;4.197;18;228
2025-09-23;10:06:07;charging;4.196;18;229
2025-09-23;10:06:25;charging;4.196;18;230
2025-09-23;10:06:43;charging;4.196;19;231
2025-09-23;10:07:01;charging;4.196;18;232
2025-09-23;10:07:19;charging;4.197;18;233
2025-09-23;10:07:37;charging;4.197;19;234
2025-09-23;10:07:55;charging;4.196;18;235
2025-09-23;10:08:13;charging;4.197;18;236
2025-09-23;10:08:31;charging;4.197;18;237
2025-09-23;10:08:49;charging;4.196;18;238
2025-09-23;10:09:07;charging;4.197;18;239
2025-09-23;10:09:25;charging;4.196;18;240
2025-09-23;10:09:43;charging;4.196;18;241
2025-09-23;10:10:01;charging;4.197;18;242
2025-09-23;10:10:19;charging;4.197;18;242
2025-09-23;10:10:37;charging;4.196;18;243
2025-09-23;10:10:55;charging;4.197;18;244
2025-09-23;10:11:13;charging;4.196;18;245
2025-09-23;10:11:31;charging;4.196;18;246
2025-09-23;10:11:49;charging;4.196;18;247
2025-09-23;10:12:07;charging;4.197;18;248
2025-09-23;10:12:25;charging;4.197;18;249
2025-09-23;10:12:43;charging;4.197;18;250
2025-09-23;10:13:01;charging;4.196;18;251
2025-09-23;10:13:19;charging;4.197;18;252
2025-09-23;10:13:37;charging;4.197;18;253
2025-09-23;10:13:55;charging;4.196;17;254
2025-09-23;10:14:13;charging;4.197;17;254
2025-09-23;10:14:31;charging;4.197;18;255
2025-09-23;10:14:49;charging;4.197;17;256
2025-09-23;10:15:07;charging;4.197;18;257
2025-09-23;10:15:25;charging;4.196;17;258
2025-09-23;10:15:43;charging;4.196;18;259
2025-09-23;10:16:01;charging;4.197;18;260
2025-09-23;10:16:19;charging;4.197;17;261
2025-09-23;10:16:37;charging;4.197;17;262
2025-09-23;10:16:55;charging;4.197;18;263
2025-09-23;10:17:13;charging;4.196;17;264
2025-09-23;10:17:31;charging;4.197;17;264
2025-09-23;10:17:49;charging;4.196;17;265
2025-09-23;10:18:07;charging;4.196;17;266
2025-09-23;10:18:25;charging;4.197;17;267
2025-09-23;10:18:43;charging;4.197;17;268
2025-09-23;10:19:01;charging;4.197;17;269
2025-09-23;10:19:19;charging;4.197;17;270
2025-09-23;10:19:37;charging;4.197;17;271
2025-09-23;10:19:55;charging;4.197;17;272
2025-09-23;10:20:13;charging;4.196;17;272
2025-09-23;10:20:31;charging;4.197;17;273
2025-09-23;10:20:49;charging;4.197;17;274
2025-09-23;10:21:07;charging;4.197;17;275
2025-09-23;10:21:25;charging;4.197;17;276
2025-09-23;10:21:43;charging;4.196;18;277
2025-09-23;10:22:01;charging;4.197;17;278
2025-09-23;10:22:19;charging;4.197;17;279
2025-09-23;10:22:37;charging;4.197;18;280
2025-09-23;10:22:55;charging;4.197;17;280
2025-09-23;10:23:13;charging;4.197;18;281
2025-09-23;10:23:31;charging;4.197;17;282
2025-09-23;10:23:49;charging;4.196;17;283
2025-09-23;10:24:07;charging;4.196;17;284
2025-09-23;10:24:25;charging;4.197;17;285
2025-09-23;10:24:43;charging;4.197;17;286
2025-09-23;10:25:01;charging;4.196;17;287
2025-09-23;10:25:19;charging;4.197;17;288
2025-09-23;10:25:37;charging;4.196;17;288
2025-09-23;10:25:55;charging;4.197;17;289
2025-09-23;10:26:13;charging;4.197;17;290
2025-09-23;10:26:31;charging;4.197;17;291
2025-09-23;10:26:49;charging;4.197;17;292
2025-09-23;10:27:07;charging;4.196;17;293
2025-09-23;10:27:25;charging;4.196;17;294
2025-09-23;10:27:43;charging;4.196;16;294
2025-09-23;10:28:01;charging;4.196;17;295
2025-09-23;10:28:19;charging;4.197;16;296
2025-09-23;10:28:37;charging;4.196;16;297
2025-09-23;10:28:55;charging;4.197;16;298
2025-09-23;10:29:13;charging;4.197;16;299
2025-09-23;10:29:31;charging;4.197;16;300
2025-09-23;10:29:49;charging;4.197;17;300
2025-09-23;10:30:07;charging;4.196;16;301
2025-09-23;10:30:25;charging;4.197;16;302
2025-09-23;10:30:43;charging;4.197;17;303
2025-09-23;10:31:01;charging;4.197;16;304
2025-09-23;10:31:19;charging;4.197;17;305
2025-09-23;10:31:37;charging;4.196;16;306
2025-09-23;10:31:55;charging;4.196;17;306
2025-09-23;10:32:13;charging;4.197;16;307
2025-09-23;10:32:31;charging;4.197;16;308
2025-09-23;10:32:49;charging;4.197;16;309
2025-09-23;10:33:07;charging;4.196;16;310
2025-09-23;10:33:25;charging;4.197;17;311
2025-09-23;10:33:43;charging;4.196;16;312
2025-09-23;10:34:01;charging;4.197;16;312
2025-09-23;10:34:19;charging;4.197;16;313
2025-09-23;10:34:37;charging;4.197;16;314
2025-09-23;10:34:55;charging;4.197;17;315
2025-09-23;10:35:13;charging;4.197;16;316
2025-09-23;10:35:31;charging;4.197;16;317
2025-09-23;10:35:49;charging;4.196;16;317
2025-09-23;10:36:07;charging;4.197;16;318
2025-09-23;10:36:25;charging;4.197;16;319
2025-09-23;10:36:43;charging;4.197;17;320
2025-09-23;10:37:01;charging;4.197;16;321
2025-09-23;10:37:19;charging;4.197;16;322
2025-09-23;10:37:37;charging;4.197;16;322
2025-09-23;10:37:55;charging;4.197;16;323
2025-09-23;10:38:13;charging;4.197;16;324
2025-09-23;10:38:31;charging;4.197;16;325
2025-09-23;10:38:49;charging;4.197;16;326
2025-09-23;10:39:07;charging;4.197;16;326
2025-09-23;10:39:25;charging;4.197;16;327
2025-09-23;10:39:43;charging;4.197;16;328
2025-09-23;10:40:01;charging;4.197;16;329
2025-09-23;10:40:19;charging;4.197;16;330
2025-09-23;10:40:37;charging;4.197;16;331
2025-09-23;10:40:55;charging;4.197;16;331
2025-09-23;10:41:13;charging;4.196;16;332
2025-09-23;10:41:31;charging;4.197;16;333
2025-09-23;10:41:49;charging;4.197;16;334
2025-09-23;10:42:07;charging;4.197;16;335
2025-09-23;10:42:25;charging;4.197;16;335
2025-09-23;10:42:43;charging;4.197;15;336
2025-09-23;10:43:01;charging;4.197;15;337
2025-09-23;10:43:19;charging;4.197;15;338
2025-09-23;10:43:37;charging;4.197;15;339
2025-09-23;10:43:55;charging;4.197;15;339
2025-09-23;10:44:13;charging;4.197;15;340
2025-09-23;10:44:31;charging;4.197;15;341
2025-09-23;10:44:49;charging;4.197;15;342
2025-09-23;10:45:07;charging;4.197;15;343
2025-09-23;10:45:25;charging;4.197;15;343
2025-09-23;10:45:43;charging;4.197;15;344
2025-09-23;10:46:01;charging;4.197;15;345
2025-09-23;10:46:19;charging;4.197;15;346
2025-09-23;10:46:37;charging;4.197;15;347
2025-09-23;10:46:55;charging;4.197;15;347
2025-09-23;10:47:13;charging;4.197;15;348
2025-09-23;10:47:31;charging;4.197;15;349
2025-09-23;10:47:49;charging;4.197;15;350
2025-09-23;10:48:07;charging;4.197;15;351
2025-09-23;10:48:25;charging;4.197;15;351
2025-09-23;10:48:43;charging;4.197;15;352
2025-09-23;10:49:01;charging;4.197;15;353
2025-09-23;10:49:19;charging;4.197;15;354
2025-09-23;10:49:37;charging;4.197;15;354
2025-09-23;10:49:55;charging;4.197;15;355
2025-09-23;10:50:13;charging;4.197;15;356
2025-09-23;10:50:31;charging;4.197;15;357
2025-09-23;10:50:49;charging;4.197;15;358
2025-09-23;10:51:07;charging;4.197;15;358
2025-09-23;10:51:25;charging;4.197;15;359
2025-09-23;10:51:43;charging;4.197;15;360
2025-09-23;10:52:01;charging;4.197;15;361
2025-09-23;10:52:19;charging;4.197;15;361
2025-09-23;10:52:37;charging;4.197;15;362
2025-09-23;10:52:55;charging;4.197;15;363
2025-09-23;10:53:13;charging;4.197;15;364
2025-09-23;10:53:31;charging;4.197;15;365
2025-09-23;10:53:49;charging;4.197;15;365
2025-09-23;10:54:07;charging;4.197;15;366
2025-09-23;10:54:25;charging;4.197;15;367
2025-09-23;10:54:43;charging;4.197;15;368
2025-09-23;10:55:01;charging;4.197;15;368
2025-09-23;10:55:19;charging;4.197;15;369
2025-09-23;10:55:37;charging;4.197;15;370
2025-09-23;10:55:55;charging;4.197;15;371
2025-09-23;10:56:13;charging;4.197;15;371
2025-09-23;10:56:31;charging;4.197;15;372
2025-09-23;10:56:49;charging;4.197;15;373
2025-09-23;10:57:07;charging;4.197;15;374
2025-09-23;10:57:25;charging;4.197;15;375
2025-09-23;10:57:43;charging;4.197;15;375
2025-09-23;10:58:01;charging;4.197;15;376
2025-09-23;10:58:19;charging;4.197;15;377
2025-09-23;10:58:37;charging;4.197;14;378
2025-09-23;10:58:55;charging;4.197;14;378
2025-09-23;10:59:13;charging;4.197;14;379
2025-09-23;10:59:31;charging;4.197;14;380
2025-09-23;10:59:49;charging;4.197;14;381
2025-09-23;11:00:07;charging;4.197;15;381
2025-09-23;11:00:25;charging;4.197;14;382
2025-09-23;11:00:43;charging;4.197;14;383
2025-09-23;11:01:01;charging;4.197;14;384
2025-09-23;11:01:19;charging;4.197;14;384
2025-09-23;11:01:37;charging;4.197;14;385
2025-09-23;11:01:55;charging;4.197;14;386
2025-09-23;11:02:13;charging;4.197;14;387
2025-09-23;11:02:31;charging;4.197;14;387
2025-09-23;11:02:49;charging;4.197;14;388
2025-09-23;11:03:07;charging;4.197;14;389
2025-09-23;11:03:25;charging;4.197;14;390
2025-09-23;11:03:43;charging;4.197;14;390
2025-09-23;11:04:01;charging;4.197;14;391
2025-09-23;11:04:19;charging;4.197;14;392
2025-09-23;11:04:37;charging;4.197;14;392
2025-09-23;11:04:55;charging;4.197;14;393
2025-09-23;11:05:13;charging;4.197;14;394
2025-09-23;11:05:31;charging;4.197;14;395
2025-09-23;11:05:49;charging;4.197;14;395
2025-09-23;11:06:07;charging;4.197;14;396
2025-09-23;11:06:25;charging;4.197;14;397
2025-09-23;11:06:43;charging;4.197;14;398
2025-09-23;11:07:01;charging;4.197;14;398
2025-09-23;11:07:19;charging;4.197;14;399
2025-09-23;11:07:37;charging;4.197;14;400
2025-09-23;11:07:55;charging;4.197;14;401
2025-09-23;11:08:13;charging;4.197;14;401
2025-09-23;11:08:31;charging;4.197;14;402
2025-09-23;11:08:49;charging;4.197;14;403
2025-09-23;11:09:07;charging;4.197;14;403
2025-09-23;11:09:25;charging;4.197;14;404
2025-09-23;11:09:43;charging;4.197;14;405
2025-09-23;11:10:01;charging;4.197;14;406
2025-09-23;11:10:19;charging;4.197;14;406
2025-09-23;11:10:37;charging;4.197;14;407
2025-09-23;11:10:55;charging;4.197;14;408
2025-09-23;11:11:13;charging;4.197;14;409
2025-09-23;11:11:31;charging;4.197;14;409
2025-09-23;11:11:49;charging;4.197;14;410
2025-09-23;11:12:07;charging;4.197;14;411
2025-09-23;11:12:25;charging;4.197;14;411
2025-09-23;11:12:43;charging;4.197;14;412
2025-09-23;11:13:01;charging;4.197;14;413
2025-09-23;11:13:19;charging;4.197;14;414
2025-09-23;11:13:37;charging;4.197;14;414
2025-09-23;11:13:55;charging;4.197;14;415
2025-09-23;11:14:13;charging;4.197;14;416
2025-09-23;11:14:31;charging;4.197;14;416
2025-09-23;11:14:49;charging;4.197;14;417
2025-09-23;11:15:07;charging;4.197;14;418
2025-09-23;11:15:25;charging;4.197;14;418
2025-09-23;11:15:43;charging;4.197;14;419
2025-09-23;11:16:01;charging;4.197;13;420
2025-09-23;11:16:19;charging;4.197;13;421
2025-09-23;11:16:37;charging;4.197;13;421
2025-09-23;11:16:55;charging;4.197;13;422
2025-09-23;11:17:13;charging;4.197;13;423
2025-09-23;11:17:31;charging;4.197;13;423
2025-09-23;11:17:49;charging;4.203;13;424
2025-09-23;11:18:07;charging;4.203;13;425
2025-09-23;11:18:25;charging;4.197;13;425
2025-09-23;11:18:43;charging;4.197;13;426
2025-09-23;11:19:01;charging;4.197;13;427
2025-09-23;11:19:19;charging;4.202;13;428
2025-09-23;11:19:37;charging;4.197;13;428
2025-09-23;11:19:55;charging;4.197;13;429
2025-09-23;11:20:13;charging;4.197;13;430
2025-09-23;11:20:31;charging;4.197;13;430
2025-09-23;11:20:49;charging;4.197;13;431
2025-09-23;11:21:07;charging;4.197;13;432
2025-09-23;11:21:25;charging;4.197;13;432
2025-09-23;11:21:43;charging;4.203;13;433
2025-09-23;11:22:01;charging;4.203;13;434
2025-09-23;11:22:19;charging;4.197;13;434
2025-09-23;11:22:37;charging;4.197;13;435
2025-09-23;11:22:55;charging;4.197;13;436
2025-09-23;11:23:13;charging;4.202;13;436
2025-09-23;11:23:31;charging;4.204;13;437
2025-09-23;11:23:49;charging;4.197;13;438
2025-09-23;11:24:07;charging;4.201;13;439
2025-09-23;11:24:25;charging;4.197;13;439
2025-09-23;11:24:43;charging;4.197;13;440
2025-09-23;11:25:01;charging;4.197;13;441
2025-09-23;11:25:19;charging;4.197;13;441
2025-09-23;11:25:37;charging;4.196;12;442
2025-09-23;11:25:55;charging;4.202;13;443
2025-09-23;11:26:13;charging;4.204;13;443
2025-09-23;11:26:31;charging;4.197;13;444
2025-09-23;11:26:49;charging;4.201;13;445
2025-09-23;11:27:07;charging;4.196;13;445
2025-09-23;11:27:25;charging;4.202;13;446
2025-09-23;11:27:43;charging;4.2;13;447
2025-09-23;11:28:01;charging;4.202;13;447
2025-09-23;11:28:19;charging;4.203;12;448
2025-09-23;11:28:37;charging;4.196;13;449
2025-09-23;11:28:55;charging;4.196;12;449
2025-09-23;11:29:13;charging;4.205;12;450
2025-09-23;11:29:31;charging;4.2;12;451
2025-09-23;11:29:49;charging;4.203;13;451
2025-09-23;11:30:07;charging;4.196;12;452
2025-09-23;11:30:25;charging;4.204;12;452
2025-09-23;11:30:43;charging;4.197;12;453
2025-09-23;11:31:01;charging;4.196;12;454
2025-09-23;11:31:19;charging;4.196;13;454
2025-09-23;11:31:37;charging;4.196;12;455
2025-09-23;11:31:55;charging;4.196;12;456
2025-09-23;11:32:13;charging;4.197;12;456
2025-09-23;11:32:31;charging;4.197;12;457
2025-09-23;11:32:49;charging;4.197;12;458
2025-09-23;11:33:07;charging;4.197;12;458
2025-09-23;11:33:25;charging;4.2;13;459
2025-09-23;11:33:43;charging;4.201;12;460
2025-09-23;11:34:01;charging;4.196;13;460
2025-09-23;11:34:19;charging;4.199;12;461
2025-09-23;11:34:37;charging;4.197;12;462
2025-09-23;11:34:55;charging;4.196;12;462
2025-09-23;11:35:13;charging;4.197;12;463
2025-09-23;11:35:31;charging;4.204;12;463
2025-09-23;11:35:49;charging;4.198;12;464
2025-09-23;11:36:07;charging;4.196;12;465
2025-09-23;11:36:25;charging;4.197;12;465
2025-09-23;11:36:43;charging;4.196;12;466
2025-09-23;11:37:01;charging;4.197;12;467
2025-09-23;11:37:19;charging;4.202;12;467
2025-09-23;11:37:37;charging;4.197;12;468
2025-09-23;11:37:55;charging;4.196;12;469
2025-09-23;11:38:13;charging;4.197;12;469
2025-09-23;11:38:31;charging;4.196;12;470
2025-09-23;11:38:49;charging;4.196;12;470
2025-09-23;11:39:07;charging;4.196;12;471
2025-09-23;11:39:25;charging;4.195;12;472
2025-09-23;11:39:43;charging;4.196;12;472
2025-09-23;11:40:01;charging;4.196;11;473
2025-09-23;11:40:19;charging;4.197;12;473
2025-09-23;11:40:37;charging;4.197;12;474
2025-09-23;11:40:55;charging;4.197;11;475
2025-09-23;11:41:13;charging;4.196;12;475
2025-09-23;11:41:31;charging;4.197;12;476
2025-09-23;11:41:49;charging;4.197;12;477
2025-09-23;11:42:07;charging;4.196;12;477
2025-09-23;11:42:25;charging;4.196;11;478
2025-09-23;11:42:43;charging;4.196;11;478
2025-09-23;11:43:01;charging;4.196;12;479
2025-09-23;11:43:19;charging;4.197;11;480
2025-09-23;11:43:37;charging;4.197;11;480
2025-09-23;11:43:55;charging;4.197;12;481
2025-09-23;11:44:13;charging;4.197;11;481
2025-09-23;11:44:31;charging;4.196;11;482
2025-09-23;11:44:49;charging;4.196;11;483
2025-09-23;11:45:07;charging;4.197;11;483
2025-09-23;11:45:25;charging;4.197;11;484
2025-09-23;11:45:43;charging;4.196;11;484
2025-09-23;11:46:01;charging;4.197;11;485
2025-09-23;11:46:19;charging;4.197;12;486
2025-09-23;11:46:37;charging;4.197;11;486
2025-09-23;11:46:55;charging;4.197;11;487
2025-09-23;11:47:13;charging;4.196;11;487
2025-09-23;11:47:31;charging;4.196;11;488
2025-09-23;11:47:49;charging;4.197;11;489
2025-09-23;11:48:07;charging;4.197;11;489
2025-09-23;11:48:25;charging;4.196;11;490
2025-09-23;11:48:43;charging;4.197;11;490
2025-09-23;11:49:01;charging;4.197;11;491
2025-09-23;11:49:19;charging;4.197;11;492
2025-09-23;11:49:37;charging;4.196;11;492
2025-09-23;11:49:55;charging;4.196;11;493
2025-09-23;11:50:13;charging;4.197;11;493
2025-09-23;11:50:31;charging;4.197;11;494
2025-09-23;11:50:49;charging;4.197;11;495
2025-09-23;11:51:07;charging;4.197;11;495
2025-09-23;11:51:25;charging;4.196;11;496
2025-09-23;11:51:43;charging;4.197;11;496
2025-09-23;11:52:01;charging;4.197;11;497
2025-09-23;11:52:19;charging;4.197;11;497
2025-09-23;11:52:37;charging;4.197;11;498
2025-09-23;11:52:55;charging;4.197;11;499
2025-09-23;11:53:13;charging;4.197;11;499
2025-09-23;11:53:31;charging;4.197;11;500
2025-09-23;11:53:49;charging;4.197;11;500
2025-09-23;11:54:07;charging;4.197;11;501
2025-09-23;11:54:25;charging;4.197;11;502
2025-09-23;11:54:43;charging;4.197;11;502
2025-09-23;11:55:01;charging;4.197;11;503
2025-09-23;11:55:19;charging;4.197;11;503
2025-09-23;11:55:37;charging;4.197;11;504
2025-09-23;11:55:55;charging;4.196;11;504
2025-09-23;11:56:13;charging;4.197;11;505
2025-09-23;11:56:31;charging;4.196;11;506
2025-09-23;11:56:49;charging;4.197;11;506
2025-09-23;11:57:07;charging;4.197;11;507
2025-09-23;11:57:25;charging;4.197;11;507
2025-09-23;11:57:43;charging;4.197;11;508
2025-09-23;11:58:01;charging;4.196;11;508
2025-09-23;11:58:19;charging;4.197;11;509
2025-09-23;11:58:37;charging;4.197;11;510
2025-09-23;11:58:55;charging;4.197;11;510
2025-09-23;11:59:13;charging;4.197;11;511
2025-09-23;11:59:31;charging;4.197;11;511
2025-09-23;11:59:49;charging;4.197;11;512
2025-09-23;12:00:07;charging;4.197;11;512
2025-09-23;12:00:25;charging;4.197;11;513
2025-09-23;12:00:43;charging;4.197;11;513
2025-09-23;12:01:01;charging;4.197;11;514
2025-09-23;12:01:19;charging;4.196;11;515
2025-09-23;12:01:37;charging;4.197;11;515
2025-09-23;12:01:55;charging;4.197;11;516
2025-09-23;12:02:13;charging;4.197;11;516
2025-09-23;12:02:31;charging;4.197;11;517
2025-09-23;12:02:49;charging;4.197;10;517
2025-09-23;12:03:07;charging;4.197;10;518
2025-09-23;12:03:25;charging;4.197;10;518
2025-09-23;12:03:43;charging;4.197;10;519
2025-09-23;12:04:01;charging;4.197;10;520
2025-09-23;12:04:19;charging;4.197;10;520
2025-09-23;12:04:37;charging;4.197;10;521
2025-09-23;12:04:55;charging;4.197;10;521
2025-09-23;12:05:13;charging;4.197;10;522
2025-09-23;12:05:31;charging;4.197;10;522
2025-09-23;12:05:49;charging;4.197;10;523
2025-09-23;12:06:07;charging;4.197;11;523
2025-09-23;12:06:25;charging;4.197;10;524
2025-09-23;12:06:43;charging;4.197;10;525
2025-09-23;12:07:01;charging;4.197;10;525
2025-09-23;12:07:19;charging;4.197;10;526
2025-09-23;12:07:37;charging;4.197;11;526
2025-09-23;12:07:55;charging;4.196;10;527
2025-09-23;12:08:13;charging;4.197;11;527
2025-09-23;12:08:31;charging;4.197;10;528
2025-09-23;12:08:49;charging;4.197;10;528
2025-09-23;12:09:07;charging;4.197;10;529
2025-09-23;12:09:25;charging;4.197;10;529
2025-09-23;12:09:43;charging;4.196;10;530
2025-09-23;12:10:01;charging;4.197;10;531
2025-09-23;12:10:19;charging;4.197;10;531
2025-09-23;12:10:37;charging;4.196;10;532
2025-09-23;12:10:55;charging;4.197;10;532
2025-09-23;12:11:13;charging;4.197;10;533
2025-09-23;12:11:31;charging;4.197;10;533
2025-09-23;12:11:49;charging;4.196;10;534
2025-09-23;12:12:07;charging;4.196;10;534
2025-09-23;12:12:25;charging;4.197;10;535
2025-09-23;12:12:43;charging;4.197;10;535
2025-09-23;12:13:01;charging;4.197;10;536
2025-09-23;12:13:19;charging;4.197;10;536
2025-09-23;12:13:37;charging;4.197;10;537
2025-09-23;12:13:55;charging;4.197;10;538
2025-09-23;12:14:13;charging;4.196;10;538
2025-09-23;12:14:31;charging;4.197;10;539
2025-09-23;12:14:49;charging;4.197;10;539
2025-09-23;12:15:07;charging;4.197;10;540
2025-09-23;12:15:25;charging;4.197;10;540
2025-09-23;12:15:43;charging;4.197;10;541
2025-09-23;12:16:01;charging;4.197;10;541
2025-09-23;12:16:19;charging;4.197;10;542
2025-09-23;12:16:37;charging;4.197;10;542
2025-09-23;12:16:55;charging;4.197;10;543
2025-09-23;12:17:13;charging;4.197;10;543
2025-09-23;12:17:31;charging;4.197;10;544
2025-09-23;12:17:49;charging;4.197;10;544
2025-09-23;12:18:07;charging;4.197;10;545
2025-09-23;12:18:25;charging;4.197;10;545
2025-09-23;12:18:43;charging;4.197;10;546
2025-09-23;12:19:01;charging;4.197;10;547
2025-09-23;12:19:19;charging;4.197;10;547
2025-09-23;12:19:37;charging;4.197;10;548
2025-09-23;12:19:55;charging;4.197;10;548
2025-09-23;12:20:13;charging;4.197;10;549
2025-09-23;12:20:31;charging;4.197;10;549
2025-09-23;12:20:49;charging;4.197;10;550
2025-09-23;12:21:07;charging;4.197;10;550
2025-09-23;12:21:25;charging;4.197;10;551
2025-09-23;12:21:43;charging;4.197;11;551
2025-09-23;12:22:01;charging;4.197;10;552
2025-09-23;12:22:19;charging;4.197;10;552
2025-09-23;12:22:37;charging;4.197;10;553
2025-09-23;12:22:55;charging;4.197;10;553
2025-09-23;12:23:13;charging;4.197;10;554
2025-09-23;12:23:31;charging;4.197;10;554
2025-09-23;12:23:49;charging;4.197;10;555
2025-09-23;12:24:07;charging;4.197;10;555
2025-09-23;12:24:25;charging;4.197;10;556
2025-09-23;12:24:43;charging;4.197;10;557
2025-09-23;12:25:01;charging;4.197;10;557
2025-09-23;12:25:19;charging;4.197;10;558
2025-09-23;12:25:37;charging;4.197;10;558
2025-09-23;12:25:55;charging;4.197;10;559
2025-09-23;12:26:13;charging;4.196;10;559
2025-09-23;12:26:31;charging;4.197;10;560
2025-09-23;12:26:49;charging;4.197;10;560
2025-09-23;12:27:07;charging;4.197;10;561
2025-09-23;12:27:25;charging;4.197;10;561
2025-09-23;12:27:43;charging;4.197;10;562
2025-09-23;12:28:01;charging;4.197;10;562
2025-09-23;12:28:19;charging;4.197;10;563
2025-09-23;12:28:37;charging;4.197;10;563
2025-09-23;12:28:55;charging;4.197;10;564
2025-09-23;12:29:13;charging;4.197;10;564
2025-09-23;12:29:31;charging;4.197;10;565
2025-09-23;12:29:48;charging;4.197;10;565
2025-09-23;12:30:07;charging;4.197;10;566
2025-09-23;12:30:24;charging;4.197;10;566
2025-09-23;12:30:42;charging;4.197;10;567
2025-09-23;12:31:00;charging;4.197;10;567
2025-09-23;12:31:18;charging;4.197;10;568
2025-09-23;12:31:36;charging;4.197;10;568
2025-09-23;12:31:55;charging;4.197;10;569
2025-09-23;12:32:13;charging;4.197;10;570
2025-09-23;12:32:31;charging;4.197;10;570
2025-09-23;12:32:49;charging;4.197;10;571
2025-09-23;12:33:07;charging;4.197;10;571
2025-09-23;12:33:25;charging;4.197;10;572
2025-09-23;12:33:43;charging;4.197;10;572
2025-09-23;12:34:01;charging;4.197;10;573
2025-09-23;12:34:19;charging;4.197;10;573
2025-09-23;12:34:36;charging;4.197;10;574
2025-09-23;12:34:54;charging;4.197;10;574
2025-09-23;12:35:12;charging;4.197;10;575
2025-09-23;12:35:30;charging;4.197;10;575
2025-09-23;12:35:48;charging;4.197;10;576
2025-09-23;12:36:07;charging;4.196;10;576
2025-09-23;12:36:25;charging;4.197;10;577
2025-09-23;12:36:43;charging;4.197;10;577
2025-09-23;12:37:01;charging;4.197;10;578
2025-09-23;12:37:19;charging;4.197;10;578
2025-09-23;12:37:36;charging;4.197;10;579
2025-09-23;12:37:54;charging;4.197;10;579
2025-09-23;12:38:12;charging;4.197;10;580
2025-09-23;12:38:30;charging;4.197;10;580
2025-09-23;12:38:49;charging;4.197;10;581
2025-09-23;12:39:07;charging;4.197;10;581
2025-09-23;12:39:25;charging;4.197;10;582
2025-09-23;12:39:43;charging;4.197;10;582
2025-09-23;12:40:01;charging;4.197;10;583
2025-09-23;12:40:19;charging;4.197;10;583
2025-09-23;12:40:37;charging;4.197;10;584
2025-09-23;12:40:55;charging;4.197;10;584
2025-09-23;12:41:12;charging;4.197;9;585
2025-09-23;12:41:30;charging;4.197;9;585
2025-09-23;12:41:49;charging;4.197;10;586
2025-09-23;12:42:07;charging;4.197;9;586
2025-09-23;12:42:24;charging;4.197;9;587
2025-09-23;12:42:42;charging;4.197;9;587
2025-09-23;12:43:01;charging;4.197;9;588
2025-09-23;12:43:19;charging;4.197;10;588
2025-09-23;12:43:37;charging;4.197;10;589
2025-09-23;12:43:54;charging;4.197;9;589
2025-09-23;12:44:12;charging;4.197;9;590
2025-09-23;12:44:30;charging;4.197;9;590
2025-09-23;12:44:49;charging;4.196;9;591
2025-09-23;12:45:07;charging;4.197;10;591
2025-09-23;12:45:25;charging;4.197;9;592
2025-09-23;12:45:42;charging;4.196;9;592
2025-09-23;12:46:00;charging;4.197;9;593
2025-09-23;12:46:19;charging;4.197;9;593
2025-09-23;12:46:37;charging;4.197;9;594
2025-09-23;12:46:55;charging;4.197;9;594
2025-09-23;12:47:12;charging;4.197;9;595
2025-09-23;12:47:30;charging;4.196;9;595
2025-09-23;12:47:49;charging;4.197;9;596
2025-09-23;12:48:07;charging;4.197;9;596
2025-09-23;12:48:24;charging;4.196;9;597
2025-09-23;12:48:42;charging;4.197;9;597
2025-09-23;12:49:00;charging;4.196;10;598
2025-09-23;12:49:19;charging;4.196;9;598
2025-09-23;12:49:36;charging;4.196;9;599
2025-09-23;12:49:54;charging;4.197;9;599
2025-09-23;12:50:12;charging;4.197;9;600
2025-09-23;12:50:30;charging;4.197;9;600
2025-09-23;12:50:48;charging;4.197;9;601
2025-09-23;12:51:06;charging;4.197;9;601
2025-09-23;12:51:24;charging;4.197;9;602
2025-09-23;12:51:42;charging;4.197;9;602
2025-09-23;12:52:00;charging;4.196;9;603
2025-09-23;12:52:18;charging;4.197;9;603
2025-09-23;12:52:36;charging;4.197;9;604
2025-09-23;12:52:55;charging;4.197;9;604
2025-09-23;12:53:12;charging;4.197;9;605
2025-09-23;12:53:30;charging;4.197;9;605
2025-09-23;12:53:48;charging;4.196;10;606
2025-09-23;12:54:06;charging;4.197;9;606
2025-09-23;12:54:24;charging;4.197;9;607
2025-09-23;12:54:42;charging;4.197;10;607
2025-09-23;12:55:00;charging;4.197;9;608
2025-09-23;12:55:18;charging;4.197;9;608
2025-09-23;12:55:36;charging;4.197;9;609
2025-09-23;12:55:54;charging;4.196;9;609
2025-09-23;12:56:12;charging;4.197;9;610
2025-09-23;12:56:30;charging;4.197;9;610
2025-09-23;12:56:48;charging;4.197;9;610
2025-09-23;12:57:06;charging;4.197;9;611
2025-09-23;12:57:24;charging;4.197;9;611
2025-09-23;12:57:42;charging;4.197;9;612
2025-09-23;12:58:00;charging;4.197;9;612
2025-09-23;12:58:18;charging;4.197;9;613
2025-09-23;12:58:36;charging;4.196;9;613
2025-09-23;12:58:54;charging;4.197;10;614
2025-09-23;12:59:12;charging;4.197;9;614
2025-09-23;12:59:30;charging;4.197;9;615
2025-09-23;12:59:48;charging;4.197;9;615
2025-09-23;13:00:06;charging;4.197;9;616
2025-09-23;13:00:24;charging;4.197;9;616
2025-09-23;13:00:42;charging;4.197;10;617
2025-09-23;13:01:00;charging;4.197;9;617
2025-09-23;13:01:18;charging;4.197;9;618
2025-09-23;13:01:36;charging;4.197;9;618
2025-09-23;13:01:54;charging;4.197;9;619
2025-09-23;13:02:12;charging;4.197;9;619
2025-09-23;13:02:30;charging;4.197;9;619
2025-09-23;13:02:48;charging;4.197;9;620
2025-09-23;13:03:06;charging;4.197;9;620
2025-09-23;13:03:24;charging;4.197;9;621
2025-09-23;13:03:42;charging;4.197;9;621
2025-09-23;13:04:00;charging;4.197;9;622
2025-09-23;13:04:18;charging;4.197;9;622
2025-09-23;13:04:36;charging;4.197;9;623
2025-09-23;13:04:54;charging;4.197;9;623
2025-09-23;13:05:12;charging;4.197;9;624
2025-09-23;13:05:30;charging;4.197;9;624
2025-09-23;13:05:48;charging;4.197;9;625
2025-09-23;13:06:06;charging;4.197;9;625
2025-09-23;13:06:24;charging;4.197;9;625
2025-09-23;13:06:42;charging;4.197;9;626
2025-09-23;13:07:00;charging;4.197;9;626
2025-09-23;13:07:18;charging;4.197;8;627
2025-09-23;13:07:36;charging;4.197;9;627
2025-09-23;13:07:54;charging;4.197;8;628
2025-09-23;13:08:12;charging;4.197;8;628
2025-09-23;13:08:30;charging;4.197;8;629
2025-09-23;13:08:48;charging;4.197;8;629
2025-09-23;13:09:06;charging;4.197;8;630
2025-09-23;13:09:24;charging;4.197;9;630
2025-09-23;13:09:42;charging;4.197;8;630
2025-09-23;13:10:00;charging;4.197;9;631
2025-09-23;13:10:18;charging;4.197;8;631
2025-09-23;13:10:36;charging;4.197;9;632
2025-09-23;13:10:54;charging;4.197;8;632
2025-09-23;13:11:12;charging;4.197;8;633
2025-09-23;13:11:30;charging;4.197;8;633
2025-09-23;13:11:48;charging;4.197;8;634
2025-09-23;13:12:06;charging;4.197;8;634
2025-09-23;13:12:24;charging;4.197;8;635
2025-09-23;13:12:42;charging;4.197;8;635
2025-09-23;13:13:00;charging;4.197;8;635
2025-09-23;13:13:18;charging;4.197;8;636
2025-09-23;13:13:36;charging;4.197;9;636
2025-09-23;13:13:54;charging;4.197;8;637
2025-09-23;13:14:12;charging;4.197;8;637
2025-09-23;13:14:30;charging;4.197;8;638
2025-09-23;13:14:48;charging;4.197;9;638
2025-09-23;13:15:06;charging;4.197;8;639
2025-09-23;13:15:24;charging;4.197;8;639
2025-09-23;13:15:42;charging;4.197;8;639
2025-09-23;13:16:00;charging;4.197;8;640
2025-09-23;13:16:18;charging;4.197;8;640
2025-09-23;13:16:36;charging;4.197;8;641
2025-09-23;13:16:54;charging;4.197;8;641
2025-09-23;13:17:12;charging;4.197;8;642
2025-09-23;13:17:30;charging;4.197;8;642
2025-09-23;13:17:48;charging;4.197;8;642
2025-09-23;13:18:06;charging;4.197;8;643
2025-09-23;13:18:24;charging;4.197;8;643
2025-09-23;13:18:42;charging;4.197;8;644
2025-09-23;13:19:00;charging;4.197;8;644
2025-09-23;13:19:18;charging;4.197;8;645
2025-09-23;13:19:36;charging;4.197;8;645
2025-09-23;13:19:54;charging;4.197;8;645
2025-09-23;13:20:12;charging;4.197;8;646
2025-09-23;13:20:30;charging;4.197;8;646
2025-09-23;13:20:48;charging;4.197;8;647
2025-09-23;13:21:06;charging;4.197;8;647
2025-09-23;13:21:24;charging;4.197;8;648
2025-09-23;13:21:42;charging;4.197;8;648
2025-09-23;13:22:00;charging;4.197;8;648
2025-09-23;13:22:18;charging;4.197;8;649
2025-09-23;13:22:36;charging;4.197;8;649
2025-09-23;13:22:54;charging;4.197;8;650
2025-09-23;13:23:12;charging;4.197;8;650
2025-09-23;13:23:30;charging;4.197;8;651
2025-09-23;13:23:48;charging;4.197;8;651
2025-09-23;13:24:06;charging;4.197;8;651
2025-09-23;13:24:24;charging;4.197;8;652
2025-09-23;13:24:42;charging;4.197;8;652
2025-09-23;13:25:00;charging;4.197;8;653
2025-09-23;13:25:18;charging;4.197;8;653
2025-09-23;13:25:36;charging;4.197;8;654
2025-09-23;13:25:54;charging;4.197;8;654
2025-09-23;13:26:12;charging;4.197;8;654
2025-09-23;13:26:30;charging;4.197;8;655
2025-09-23;13:26:48;charging;4.197;8;655
2025-09-23;13:27:06;charging;4.197;8;656
2025-09-23;13:27:24;charging;4.197;8;656
2025-09-23;13:27:42;charging;4.197;8;656
2025-09-23;13:28:00;charging;4.197;8;657
2025-09-23;13:28:18;charging;4.197;8;657
2025-09-23;13:28:36;charging;4.197;8;658
2025-09-23;13:28:54;charging;4.197;8;658
2025-09-23;13:29:12;charging;4.197;8;659
2025-09-23;13:29:30;charging;4.197;8;659
2025-09-23;13:29:48;charging;4.197;8;659
2025-09-23;13:30:06;charging;4.197;8;660
2025-09-23;13:30:24;charging;4.197;8;660
2025-09-23;13:30:42;charging;4.197;8;661
2025-09-23;13:31:00;charging;4.197;8;661
2025-09-23;13:31:18;charging;4.197;8;661
2025-09-23;13:31:36;charging;4.197;8;662
2025-09-23;13:31:54;charging;4.197;8;662
2025-09-23;13:32:12;charging;4.197;8;663
2025-09-23;13:32:30;charging;4.197;8;663
2025-09-23;13:32:48;charging;4.197;8;663
2025-09-23;13:33:06;charging;4.197;8;664
2025-09-23;13:33:24;charging;4.197;8;664
2025-09-23;13:33:42;charging;4.197;8;665
2025-09-23;13:34:00;charging;4.197;8;665
2025-09-23;13:34:18;charging;4.197;7;665
2025-09-23;13:34:36;charging;4.197;7;666
2025-09-23;13:34:54;charging;4.197;7;666
2025-09-23;13:35:12;charging;4.197;7;667
2025-09-23;13:35:30;charging;4.197;7;667
2025-09-23;13:35:48;charging;4.197;7;667
2025-09-23;13:36:06;charging;4.197;7;668
2025-09-23;13:36:24;charging;4.197;7;668
2025-09-23;13:36:42;charging;4.197;7;669
2025-09-23;13:37:00;charging;4.197;7;669
2025-09-23;13:37:18;charging;4.197;7;669
2025-09-23;13:37:36;charging;4.197;7;670
2025-09-23;13:37:54;charging;4.197;7;670
2025-09-23;13:38:12;charging;4.197;7;671
2025-09-23;13:38:30;charging;4.196;7;671
2025-09-23;13:38:48;charging;4.197;8;671
2025-09-23;13:39:06;charging;4.204;8;672
2025-09-23;13:39:24;charging;4.197;8;672
2025-09-23;13:39:42;charging;4.196;7;673
2025-09-23;13:40:00;charging;4.2;7;673
2025-09-23;13:40:18;charging;4.197;7;673
2025-09-23;13:40:36;charging;4.196;7;674
2025-09-23;13:40:54;charging;4.197;7;674
2025-09-23;13:41:12;charging;4.197;8;675
2025-09-23;13:41:30;charging;4.197;7;675
2025-09-23;13:41:48;charging;4.196;7;675
2025-09-23;13:42:06;charging;4.197;7;676
2025-09-23;13:42:24;charging;4.196;7;676
2025-09-23;13:42:42;charging;4.197;7;677
2025-09-23;13:43:00;charging;4.197;7;677
2025-09-23;13:43:18;charging;4.197;7;677
2025-09-23;13:43:36;charging;4.196;7;678
2025-09-23;13:43:54;charging;4.197;7;678
2025-09-23;13:44:12;charging;4.196;7;678
2025-09-23;13:44:30;charging;4.197;7;679
2025-09-23;13:44:48;charging;4.197;7;679
2025-09-23;13:45:06;charging;4.196;7;680
2025-09-23;13:45:24;charging;4.197;7;680
2025-09-23;13:45:42;charging;4.197;7;680
2025-09-23;13:46:00;charging;4.197;7;681
2025-09-23;13:46:18;charging;4.197;7;681
2025-09-23;13:46:36;charging;4.197;7;681
2025-09-23;13:46:54;charging;4.197;7;682
2025-09-23;13:47:12;charging;4.197;7;682
2025-09-23;13:47:30;charging;4.197;7;683
2025-09-23;13:47:48;charging;4.197;7;683
2025-09-23;13:48:06;charging;4.197;7;683
2025-09-23;13:48:24;charging;4.197;7;684
2025-09-23;13:48:42;charging;4.197;7;684
2025-09-23;13:49:00;charging;4.197;7;684
2025-09-23;13:49:18;charging;4.197;7;685
2025-09-23;13:49:36;charging;4.197;7;685
2025-09-23;13:49:54;charging;4.197;7;685
2025-09-23;13:50:12;charging;4.197;7;686
2025-09-23;13:50:30;charging;4.197;7;686
2025-09-23;13:50:48;charging;4.197;7;687
2025-09-23;13:51:06;charging;4.196;7;687
2025-09-23;13:51:24;charging;4.197;7;687
2025-09-23;13:51:42;charging;4.196;7;688
2025-09-23;13:52:00;charging;4.197;7;688
2025-09-23;13:52:18;charging;4.197;7;688
2025-09-23;13:52:36;charging;4.197;7;689
2025-09-23;13:52:54;charging;4.197;7;689
2025-09-23;13:53:12;charging;4.197;7;689
2025-09-23;13:53:30;charging;4.197;7;690
2025-09-23;13:53:48;charging;4.197;7;690
2025-09-23;13:54:06;charging;4.197;7;691
2025-09-23;13:54:24;charging;4.197;7;691
2025-09-23;13:54:42;charging;4.197;7;691
2025-09-23;13:55:00;charging;4.196;7;692
2025-09-23;13:55:18;charging;4.197;7;692
2025-09-23;13:55:36;charging;4.197;7;692
2025-09-23;13:55:54;charging;4.197;7;693
2025-09-23;13:56:12;charging;4.197;6;693
2025-09-23;13:56:30;charging;4.197;7;693
2025-09-23;13:56:48;charging;4.197;7;694
2025-09-23;13:57:06;charging;4.197;7;694
2025-09-23;13:57:24;charging;4.197;7;694
2025-09-23;13:57:42;charging;4.197;7;695
2025-09-23;13:58:00;charging;4.197;7;695
2025-09-23;13:58:18;charging;4.197;6;695
2025-09-23;13:58:36;charging;4.197;6;696
2025-09-23;13:58:54;charging;4.197;6;696
2025-09-23;13:59:12;charging;4.197;6;697
2025-09-23;13:59:30;charging;4.197;6;697
2025-09-23;13:59:48;charging;4.197;6;697
2025-09-23;14:00:06;charging;4.197;6;698
2025-09-23;14:00:24;charging;4.197;6;698
2025-09-23;14:00:42;charging;4.197;6;698
2025-09-23;14:01:00;charging;4.197;6;699
2025-09-23;14:01:18;charging;4.197;6;699
2025-09-23;14:01:36;charging;4.197;6;699
2025-09-23;14:01:54;charging;4.197;6;700
2025-09-23;14:02:12;charging;4.197;6;700
2025-09-23;14:02:30;charging;4.197;6;700
2025-09-23;14:02:48;charging;4.197;6;701
2025-09-23;14:03:06;charging;4.197;6;701
2025-09-23;14:03:24;charging;4.197;6;701
2025-09-23;14:03:42;charging;4.197;6;702
2025-09-23;14:04:00;charging;4.197;6;702
2025-09-23;14:04:18;charging;4.197;6;702
2025-09-23;14:04:36;charging;4.197;6;703
2025-09-23;14:04:54;charging;4.197;6;703
2025-09-23;14:05:12;charging;4.197;6;703
2025-09-23;14:05:30;charging;4.197;6;704
2025-09-23;14:05:48;charging;4.197;6;704
2025-09-23;14:06:06;charging;4.197;6;704
2025-09-23;14:06:24;charging;4.197;6;705
2025-09-23;14:06:42;charging;4.197;6;705
2025-09-23;14:07:00;charging;4.197;6;705
2025-09-23;14:07:18;charging;4.197;6;706
2025-09-23;14:07:36;charging;4.197;6;706
2025-09-23;14:07:54;charging;4.197;6;707
2025-09-23;14:08:12;charging;4.197;6;707
2025-09-23;14:08:30;charging;4.197;6;707
2025-09-23;14:08:48;charging;4.197;6;708
2025-09-23;14:09:06;charging;4.197;6;708
2025-09-23;14:09:24;charging;4.197;6;708
2025-09-23;14:09:42;charging;4.197;6;709
2025-09-23;14:10:00;charging;4.197;6;709
2025-09-23;14:10:18;charging;4.197;6;709
2025-09-23;14:10:36;charging;4.197;6;710
2025-09-23;14:10:54;charging;4.197;6;710
2025-09-23;14:11:12;charging;4.197;6;710
2025-09-23;14:11:30;charging;4.197;6;711
2025-09-23;14:11:48;charging;4.197;6;711
2025-09-23;14:12:06;charging;4.197;6;711
2025-09-23;14:12:24;charging;4.197;6;712
2025-09-23;14:12:42;charging;4.197;6;712
2025-09-23;14:13:00;charging;4.197;6;712
2025-09-23;14:13:18;charging;4.197;6;713
2025-09-23;14:13:36;charging;4.197;6;713
2025-09-23;14:13:54;charging;4.197;6;713
2025-09-23;14:14:12;charging;4.197;6;713
2025-09-23;14:14:30;charging;4.197;6;714
2025-09-23;14:14:48;charging;4.197;6;714
2025-09-23;14:15:06;charging;4.197;6;714
2025-09-23;14:15:24;charging;4.197;6;715
2025-09-23;14:15:42;charging;4.197;6;715
2025-09-23;14:16:00;charging;4.197;6;715
2025-09-23;14:16:18;charging;4.197;6;716
2025-09-23;14:16:36;charging;4.197;6;716
2025-09-23;14:16:54;charging;4.197;6;716
2025-09-23;14:17:12;charging;4.197;6;717
2025-09-23;14:17:30;charging;4.197;6;717
2025-09-23;14:17:48;charging;4.197;6;717
2025-09-23;14:18:06;charging;4.197;6;718
2025-09-23;14:18:24;charging;4.197;6;718
2025-09-23;14:18:42;charging;4.197;6;718
2025-09-23;14:19:00;charging;4.197;6;719
2025-09-23;14:19:18;charging;4.197;6;719
2025-09-23;14:19:36;charging;4.197;6;719
2025-09-23;14:19:54;charging;4.197;6;720
2025-09-23;14:20:12;charging;4.197;6;720
2025-09-23;14:20:30;charging;4.197;6;720
2025-09-23;14:20:48;charging;4.197;6;721
2025-09-23;14:21:06;charging;4.197;6;721
2025-09-23;14:21:24;charging;4.197;6;721
2025-09-23;14:21:42;charging;4.197;6;722
2025-09-23;14:22:00;charging;4.197;6;722
2025-09-23;14:22:18;charging;4.197;6;722
2025-09-23;14:22:36;charging;4.197;6;723
2025-09-23;14:22:54;charging;4.197;6;723
2025-09-23;14:23:12;charging;4.197;6;723
2025-09-23;14:23:30;charging;4.197;6;723
2025-09-23;14:23:48;charging;4.197;6;724
2025-09-23;14:24:06;charging;4.197;6;724
2025-09-23;14:24:24;charging;4.197;6;724
2025-09-23;14:24:42;charging;4.197;6;725
2025-09-23;14:25:00;charging;4.197;6;725
2025-09-23;14:25:18;charging;4.197;6;725
2025-09-23;14:25:36;charging;4.197;6;726
2025-09-23;14:25:54;charging;4.197;6;726
2025-09-23;14:26:12;charging;4.197;6;726
2025-09-23;14:26:30;charging;4.197;6;727
2025-09-23;14:26:48;charging;4.197;6;727
2025-09-23;14:27:06;charging;4.197;6;727
2025-09-23;14:27:24;charging;4.197;6;728
2025-09-23;14:27:42;charging;4.197;6;728
2025-09-23;14:28:00;charging;4.197;6;728
2025-09-23;14:28:18;charging;4.197;6;728
2025-09-23;14:28:36;charging;4.197;6;729
2025-09-23;14:28:54;charging;4.197;6;729
2025-09-23;14:29:12;charging;4.197;6;729
2025-09-23;14:29:30;charging;4.204;5;730
2025-09-23;14:29:48;charging;4.197;6;730
2025-09-23;14:30:06;charging;4.197;6;730
2025-09-23;14:30:24;charging;4.197;6;731
2025-09-23;14:30:42;charging;4.197;6;731
2025-09-23;14:31:00;charging;4.197;6;731
2025-09-23;14:31:18;charging;4.197;6;731
2025-09-23;14:31:36;charging;4.197;5;732
2025-09-23;14:31:54;charging;4.197;6;732
2025-09-23;14:32:12;charging;4.197;6;732
2025-09-23;14:32:30;charging;4.197;6;733
2025-09-23;14:32:48;charging;4.197;6;733
2025-09-23;14:33:06;charging;4.197;5;733
2025-09-23;14:33:24;charging;4.197;6;734
2025-09-23;14:33:42;charging;4.197;5;734
2025-09-23;14:34:00;charging;4.197;5;734
2025-09-23;14:34:18;charging;4.197;5;734
2025-09-23;14:34:36;charging;4.205;6;735
2025-09-23;14:34:54;charging;4.197;5;735
2025-09-23;14:35:12;charging;4.197;5;735
2025-09-23;14:35:30;charging;4.197;5;736
2025-09-23;14:35:48;charging;4.197;5;736
2025-09-23;14:36:06;charging;4.197;5;736
2025-09-23;14:36:24;charging;4.197;5;737
2025-09-23;14:36:42;charging;4.197;5;737
2025-09-23;14:37:00;charging;4.205;5;737
2025-09-23;14:37:18;charging;4.197;5;737
2025-09-23;14:37:36;charging;4.197;5;738
2025-09-23;14:37:54;charging;4.203;5;738
2025-09-23;14:38:12;charging;4.197;5;738
2025-09-23;14:38:30;charging;4.202;5;739
2025-09-23;14:38:48;charging;4.197;5;739
2025-09-23;14:39:06;charging;4.197;5;739
2025-09-23;14:39:24;charging;4.197;5;739
2025-09-23;14:39:42;charging;4.196;5;740
2025-09-23;14:40:00;charging;4.197;5;740
2025-09-23;14:40:18;charging;4.204;5;740
2025-09-23;14:40:36;charging;4.197;5;741
2025-09-23;14:40:54;charging;4.197;5;741
2025-09-23;14:41:12;charging;4.202;5;741
2025-09-23;14:41:30;charging;4.196;5;742
2025-09-23;14:41:48;charging;4.197;5;742
2025-09-23;14:42:06;charging;4.197;5;742
2025-09-23;14:42:24;charging;4.197;5;742
2025-09-23;14:42:42;charging;4.197;5;743
2025-09-23;14:43:00;charging;4.197;5;743
2025-09-23;14:43:18;charging;4.197;5;743
2025-09-23;14:43:36;charging;4.202;5;744
2025-09-23;14:43:54;charging;4.197;5;744
2025-09-23;14:44:12;charging;4.197;5;744
2025-09-23;14:44:30;charging;4.197;5;744
2025-09-23;14:44:48;charging;4.197;5;745
2025-09-23;14:45:06;charging;4.197;5;745
2025-09-23;14:45:24;charging;4.202;5;745
2025-09-23;14:45:42;charging;4.197;5;745
2025-09-23;14:46:00;charging;4.202;5;746
2025-09-23;14:46:18;charging;4.197;5;746
2025-09-23;14:46:36;charging;4.205;5;746
2025-09-23;14:46:54;charging;4.196;5;747
2025-09-23;14:47:12;charging;4.197;5;747
2025-09-23;14:47:26;rest;4.124;0;747