File: monitor_Icharger/1discharging_1_3.csv
date;time;battery_state;voltage[V];current[mA];capacity[mAh]
2025-09-23;16:23:43;discharging;3.285;50;0
2025-09-23;16:23:45;discharging;3.284;50;0
2025-09-23;16:23:47;discharging;3.3;49;1
2025-09-23;16:23:49;discharging;3.31;49;1
2025-09-23;16:23:51;discharging;3.32;49;1
2025-09-23;16:23:53;discharging;3.311;49;1
2025-09-23;16:23:55;discharging;3.311;49;2
2025-09-23;16:23:57;discharging;3.312;50;2
2025-09-23;16:23:59;discharging;3.317;49;2
2025-09-23;16:24:01;discharging;3.318;49;2
2025-09-23;16:24:03;discharging;3.318;50;3
2025-09-23;16:24:05;discharging;3.318;49;3
2025-09-23;16:24:07;discharging;3.318;50;3
2025-09-23;16:24:09;discharging;3.317;49;4
2025-09-23;16:24:11;discharging;3.339;49;4
2025-09-23;16:24:13;discharging;3.325;49;4
2025-09-23;16:24:15;discharging;3.327;50;4
2025-09-23;16:24:17;discharging;3.326;49;5
2025-09-23;16:24:19;discharging;3.325;50;5
2025-09-23;16:24:21;discharging;3.327;49;5
2025-09-23;16:24:23;discharging;3.325;49;6
2025-09-23;16:24:25;discharging;3.326;50;6
2025-09-23;16:24:27;discharging;3.326;49;6
2025-09-23;16:24:29;discharging;3.325;50;6
2025-09-23;16:24:31;discharging;3.327;49;7
2025-09-23;16:24:33;discharging;3.326;49;7
2025-09-23;16:24:35;discharging;3.326;49;7
2025-09-23;16:24:37;discharging;3.326;49;8
2025-09-23;16:24:39;discharging;3.326;50;8
2025-09-23;16:24:41;discharging;3.326;49;8
2025-09-23;16:24:43;discharging;3.326;50;8
2025-09-23;16:24:45;discharging;3.325;49;9
2025-09-23;16:24:47;discharging;3.325;50;9
2025-09-23;16:24:49;discharging;3.325;49;9
2025-09-23;16:24:51;discharging;3.326;49;9
2025-09-23;16:24:53;discharging;3.325;49;10
2025-09-23;16:24:55;discharging;3.326;49;10
2025-09-23;16:24:57;discharging;3.325;50;10
2025-09-23;16:24:59;discharging;3.326;49;11
2025-09-23;16:25:01;discharging;3.325;50;11
2025-09-23;16:25:03;discharging;3.325;49;11
2025-09-23;16:25:05;discharging;3.326;49;11
2025-09-23;16:25:07;discharging;3.325;49;12
2025-09-23;16:25:09;discharging;3.326;49;12
2025-09-23;16:25:11;discharging;3.325;49;12
2025-09-23;16:25:13;discharging;3.326;49;13
2025-09-23;16:25:15;discharging;3.326;50;13
2025-09-23;16:25:17;discharging;3.326;49;13
2025-09-23;16:25:19;discharging;3.339;50;13
2025-09-23;16:25:21;discharging;3.325;49;14
2025-09-23;16:25:23;discharging;3.325;49;14
2025-09-23;16:25:25;discharging;3.325;49;14
2025-09-23;16:25:27;discharging;3.325;49;14
2025-09-23;16:25:29;discharging;3.326;50;15
2025-09-23;16:25:31;discharging;3.325;49;15
2025-09-23;16:25:33;discharging;3.326;49;15
2025-09-23;16:25:35;discharging;3.324;49;16
2025-09-23;16:25:37;discharging;3.325;49;16
2025-09-23;16:25:39;discharging;3.324;49;16
2025-09-23;16:25:41;discharging;3.326;49;16
2025-09-23;16:25:43;discharging;3.323;49;17
2025-09-23;16:25:45;discharging;3.323;49;17
2025-09-23;16:25:47;discharging;3.323;49;17
2025-09-23;16:25:49;discharging;3.322;49;18
2025-09-23;16:25:51;discharging;3.322;49;18
2025-09-23;16:25:53;discharging;3.32;49;18
2025-09-23;16:25:55;discharging;3.321;49;18
2025-09-23;16:25:57;discharging;3.321;49;19
2025-09-23;16:25:59;discharging;3.318;49;19
2025-09-23;16:26:01;discharging;3.317;50;19
2025-09-23;16:26:03;discharging;3.317;49;20
2025-09-23;16:26:05;discharging;3.317;49;20
2025-09-23;16:26:07;discharging;3.317;49;20
2025-09-23;16:26:09;discharging;3.336;49;20
2025-09-23;16:26:11;discharging;3.318;49;21
2025-09-23;16:26:13;discharging;3.318;49;21
2025-09-23;16:26:15;discharging;3.317;50;21
2025-09-23;16:26:17;discharging;3.317;49;21
2025-09-23;16:26:19;discharging;3.317;49;22
2025-09-23;16:26:21;discharging;3.317;49;22
2025-09-23;16:26:23;discharging;3.318;49;22
2025-09-23;16:26:25;discharging;3.318;49;23
2025-09-23;16:26:27;discharging;3.317;49;23
2025-09-23;16:26:29;discharging;3.317;49;23
2025-09-23;16:26:31;discharging;3.317;49;23
2025-09-23;16:26:33;discharging;3.317;49;24
2025-09-23;16:26:35;discharging;3.317;49;24
2025-09-23;16:26:37;discharging;3.317;49;24
2025-09-23;16:26:39;discharging;3.316;49;25
2025-09-23;16:26:41;discharging;3.314;49;25
2025-09-23;16:26:43;discharging;3.317;49;25
2025-09-23;16:26:45;discharging;3.315;50;25
2025-09-23;16:26:47;discharging;3.315;49;26
2025-09-23;16:26:49;discharging;3.316;49;26
2025-09-23;16:26:51;discharging;3.316;49;26
2025-09-23;16:26:53;discharging;3.312;49;26
2025-09-23;16:26:55;discharging;3.314;49;27
2025-09-23;16:26:57;discharging;3.313;50;27
2025-09-23;16:26:59;discharging;3.311;50;27
2025-09-23;16:27:01;discharging;3.315;49;28
2025-09-23;16:27:03;discharging;3.312;49;28
2025-09-23;16:27:05;discharging;3.317;49;28
2025-09-23;16:27:07;discharging;3.311;49;28
2025-09-23;16:27:09;discharging;3.308;50;29
2025-09-23;16:27:11;discharging;3.308;50;29
2025-09-23;16:27:13;discharging;3.31;49;29
2025-09-23;16:27:15;discharging;3.307;50;30
2025-09-23;16:27:17;discharging;3.308;49;30
2025-09-23;16:27:19;discharging;3.307;49;30
2025-09-23;16:27:21;discharging;3.306;50;30
2025-09-23;16:27:23;discharging;3.306;49;31
2025-09-23;16:27:25;discharging;3.307;49;31
2025-09-23;16:27:27;discharging;3.307;49;31
2025-09-23;16:27:29;discharging;3.308;49;32
2025-09-23;16:27:31;discharging;3.307;50;32
2025-09-23;16:27:33;discharging;3.307;50;32
2025-09-23;16:27:35;discharging;3.307;49;32
2025-09-23;16:27:37;discharging;3.307;49;33
2025-09-23;16:27:39;discharging;3.307;49;33
2025-09-23;16:27:41;discharging;3.306;49;33
2025-09-23;16:27:43;discharging;3.305;50;34
2025-09-23;16:27:45;discharging;3.306;50;34
2025-09-23;16:27:47;discharging;3.307;49;34
2025-09-23;16:27:49;discharging;3.306;49;34
2025-09-23;16:27:51;discharging;3.306;49;35
2025-09-23;16:27:53;discharging;3.307;49;35
2025-09-23;16:27:55;discharging;3.306;49;35
2025-09-23;16:27:57;discharging;3.306;50;36
2025-09-23;16:27:59;discharging;3.306;50;36
2025-09-23;16:28:01;discharging;3.306;49;36
2025-09-23;16:28:03;discharging;3.306;49;36
2025-09-23;16:28:05;discharging;3.306;49;37
2025-09-23;16:28:07;discharging;3.306;49;37
2025-09-23;16:28:09;discharging;3.304;50;37
2025-09-23;16:28:11;discharging;3.305;50;37
2025-09-23;16:28:13;discharging;3.304;50;38
2025-09-23;16:28:15;discharging;3.303;49;38
2025-09-23;16:28:17;discharging;3.304;49;38
2025-09-23;16:28:19;discharging;3.304;49;39
2025-09-23;16:28:21;discharging;3.304;49;39
2025-09-23;16:28:23;discharging;3.304;50;39
2025-09-23;16:28:25;discharging;3.303;50;39
2025-09-23;16:28:27;discharging;3.304;49;40
2025-09-23;16:28:29;discharging;3.304;49;40
2025-09-23;16:28:31;discharging;3.304;49;40
2025-09-23;16:28:33;discharging;3.304;49;41
2025-09-23;16:28:35;discharging;3.303;50;41
2025-09-23;16:28:37;discharging;3.303;50;41
2025-09-23;16:28:39;discharging;3.303;50;41
2025-09-23;16:28:41;discharging;3.304;49;42
2025-09-23;16:28:43;discharging;3.302;49;42
2025-09-23;16:28:45;discharging;3.303;49;42
2025-09-23;16:28:47;discharging;3.303;49;43
2025-09-23;16:28:49;discharging;3.301;50;43
2025-09-23;16:28:51;discharging;3.301;50;43
2025-09-23;16:28:53;discharging;3.301;50;43
2025-09-23;16:28:55;discharging;3.302;49;44
2025-09-23;16:28:57;discharging;3.303;49;44
2025-09-23;16:28:59;discharging;3.302;49;44
2025-09-23;16:29:01;discharging;3.301;50;44
2025-09-23;16:29:03;discharging;3.301;50;45
2025-09-23;16:29:05;discharging;3.301;50;45
2025-09-23;16:29:07;discharging;3.302;49;45
2025-09-23;16:29:09;discharging;3.302;49;46
2025-09-23;16:29:11;discharging;3.302;49;46
2025-09-23;16:29:13;discharging;3.302;49;46
2025-09-23;16:29:15;discharging;3.302;50;46
2025-09-23;16:29:17;discharging;3.301;50;47
2025-09-23;16:29:19;discharging;3.301;50;47
2025-09-23;16:29:21;discharging;3.302;49;47
2025-09-23;16:29:23;discharging;3.302;49;48
2025-09-23;16:29:25;discharging;3.302;49;48
2025-09-23;16:29:27;discharging;3.301;50;48
2025-09-23;16:29:29;discharging;3.301;50;48
2025-09-23;16:29:31;discharging;3.301;50;49
2025-09-23;16:29:33;discharging;3.301;50;49
2025-09-23;16:29:35;discharging;3.302;49;49
2025-09-23;16:29:37;discharging;3.302;49;50
2025-09-23;16:29:39;discharging;3.302;49;50
2025-09-23;16:29:41;discharging;3.301;50;50
2025-09-23;16:29:43;discharging;3.301;50;50
2025-09-23;16:29:45;discharging;3.301;50;51
2025-09-23;16:29:47;discharging;3.301;50;51
2025-09-23;16:29:49;discharging;3.302;49;51
2025-09-23;16:29:51;discharging;3.302;49;51
2025-09-23;16:29:53;discharging;3.301;50;52
2025-09-23;16:29:55;discharging;3.301;50;52
2025-09-23;16:29:57;discharging;3.301;50;52
2025-09-23;16:29:59;discharging;3.301;50;53
2025-09-23;16:30:01;discharging;3.302;49;53
2025-09-23;16:30:03;discharging;3.302;49;53
2025-09-23;16:30:05;discharging;3.302;49;53
2025-09-23;16:30:07;discharging;3.301;50;54
2025-09-23;16:30:09;discharging;3.301;50;54
2025-09-23;16:30:11;discharging;3.301;50;54
2025-09-23;16:30:13;discharging;3.301;50;55
2025-09-23;16:30:15;discharging;3.302;49;55
2025-09-23;16:30:17;discharging;3.301;49;55
2025-09-23;16:30:19;discharging;3.301;50;55
2025-09-23;16:30:21;discharging;3.3;50;56
2025-09-23;16:30:23;discharging;3.3;49;56
2025-09-23;16:30:25;discharging;3.3;49;56
2025-09-23;16:30:27;discharging;3.3;49;57
2025-09-23;16:30:29;discharging;3.3;50;57
2025-09-23;16:30:31;discharging;3.3;50;57
2025-09-23;16:30:33;discharging;3.3;50;57
2025-09-23;16:30:35;discharging;3.3;50;58
2025-09-23;16:30:37;discharging;3.3;50;58
2025-09-23;16:30:39;discharging;3.301;50;58
2025-09-23;16:30:41;discharging;3.299;50;58
2025-09-23;16:30:43;discharging;3.3;49;59
2025-09-23;16:30:45;discharging;3.3;50;59
2025-09-23;16:30:47;discharging;3.3;50;59
2025-09-23;16:30:49;discharging;3.3;50;60
2025-09-23;16:30:51;discharging;3.301;49;60
2025-09-23;16:30:53;discharging;3.3;50;60
2025-09-23;16:30:55;discharging;3.301;49;60
2025-09-23;16:30:57;discharging;3.3;50;61
2025-09-23;16:30:59;discharging;3.302;49;61
2025-09-23;16:31:01;discharging;3.301;50;61
2025-09-23;16:31:03;discharging;3.301;50;62
2025-09-23;16:31:05;discharging;3.301;50;62
2025-09-23;16:31:07;discharging;3.301;50;62
2025-09-23;16:31:09;discharging;3.301;50;62
2025-09-23;16:31:11;discharging;3.302;49;63
2025-09-23;16:31:13;discharging;3.301;50;63
2025-09-23;16:31:15;discharging;3.302;49;63
2025-09-23;16:31:17;discharging;3.302;50;64
2025-09-23;16:31:19;discharging;3.302;50;64
2025-09-23;16:31:21;discharging;3.302;50;64
2025-09-23;16:31:23;discharging;3.301;50;64
2025-09-23;16:31:25;discharging;3.301;49;65
2025-09-23;16:31:27;discharging;3.305;50;65
2025-09-23;16:31:29;discharging;3.296;50;65
2025-09-23;16:31:31;discharging;3.301;49;65
2025-09-23;16:31:33;discharging;3.304;50;66
2025-09-23;16:31:35;discharging;3.317;50;66
2025-09-23;16:31:37;discharging;3.307;49;66
2025-09-23;16:31:39;discharging;3.312;50;67
2025-09-23;16:31:41;discharging;3.3;49;67
2025-09-23;16:31:43;discharging;3.303;50;67
2025-09-23;16:31:45;discharging;3.301;49;67
2025-09-23;16:31:47;discharging;3.305;50;68
2025-09-23;16:31:49;discharging;3.303;50;68
2025-09-23;16:31:51;discharging;3.302;49;68
2025-09-23;16:31:53;discharging;3.3;49;69
2025-09-23;16:31:55;discharging;3.301;50;69
2025-09-23;16:31:57;discharging;3.301;49;69
2025-09-23;16:31:59;discharging;3.3;50;69
2025-09-23;16:32:01;discharging;3.303;50;70
2025-09-23;16:32:03;discharging;3.298;50;70
2025-09-23;16:32:05;discharging;3.295;49;70
2025-09-23;16:32:07;discharging;3.298;49;71
2025-09-23;16:32:09;discharging;3.301;50;71
2025-09-23;16:32:11;discharging;3.3;49;71
2025-09-23;16:32:13;discharging;3.316;50;71
2025-09-23;16:32:15;discharging;3.301;49;72
2025-09-23;16:32:17;discharging;3.3;49;72
2025-09-23;16:32:19;discharging;3.304;49;72
2025-09-23;16:32:21;discharging;3.301;50;73
2025-09-23;16:32:23;discharging;3.301;49;73
2025-09-23;16:32:25;discharging;3.302;49;73
2025-09-23;16:32:27;discharging;3.301;49;73
2025-09-23;16:32:29;discharging;3.306;50;74
2025-09-23;16:32:31;discharging;3.301;49;74
2025-09-23;16:32:33;discharging;3.3;50;74
2025-09-23;16:32:35;discharging;3.302;49;74
2025-09-23;16:32:37;discharging;3.301;50;75
2025-09-23;16:32:39;discharging;3.302;49;75
2025-09-23;16:32:41;discharging;3.307;49;75
2025-09-23;16:32:43;discharging;3.297;49;76
2025-09-23;16:32:45;discharging;3.301;49;76
2025-09-23;16:32:47;discharging;3.297;49;76
2025-09-23;16:32:49;discharging;3.302;49;76
2025-09-23;16:32:51;discharging;3.306;49;77
2025-09-23;16:32:53;discharging;3.317;49;77
2025-09-23;16:32:55;discharging;3.3;49;77
2025-09-23;16:32:57;discharging;3.31;49;78
2025-09-23;16:32:59;discharging;3.305;49;78
2025-09-23;16:33:01;discharging;3.3;49;78
2025-09-23;16:33:03;discharging;3.298;49;78
2025-09-23;16:33:05;discharging;3.299;50;79
2025-09-23;16:33:07;discharging;3.3;49;79
2025-09-23;16:33:09;discharging;3.3;49;79
2025-09-23;16:33:11;discharging;3.305;49;80
2025-09-23;16:33:13;discharging;3.304;49;80
2025-09-23;16:33:15;discharging;3.302;49;80
2025-09-23;16:33:17;discharging;3.301;49;80
2025-09-23;16:33:19;discharging;3.304;50;81
2025-09-23;16:33:21;discharging;3.301;49;81
2025-09-23;16:33:23;discharging;3.309;49;81
2025-09-23;16:33:25;discharging;3.303;50;82
2025-09-23;16:33:27;discharging;3.301;50;82
2025-09-23;16:33:29;discharging;3.301;50;82
2025-09-23;16:33:31;discharging;3.302;50;82
2025-09-23;16:33:33;discharging;3.301;49;83
2025-09-23;16:33:35;discharging;3.302;49;83
2025-09-23;16:33:37;discharging;3.308;49;83
2025-09-23;16:33:39;discharging;3.303;49;83
2025-09-23;16:33:41;discharging;3.305;49;84
2025-09-23;16:33:43;discharging;3.303;49;84
2025-09-23;16:33:45;discharging;3.301;50;84
2025-09-23;16:33:47;discharging;3.302;49;85
2025-09-23;16:33:49;discharging;3.302;49;85
2025-09-23;16:33:51;discharging;3.305;49;85
2025-09-23;16:33:53;discharging;3.303;50;85
2025-09-23;16:33:55;discharging;3.302;49;86
2025-09-23;16:33:57;discharging;3.302;49;86
2025-09-23;16:33:59;discharging;3.301;50;86
2025-09-23;16:34:01;discharging;3.306;50;87
2025-09-23;16:34:03;discharging;3.303;49;87
2025-09-23;16:34:05;discharging;3.301;49;87
2025-09-23;16:34:07;discharging;3.301;49;87
2025-09-23;16:34:09;discharging;3.302;49;88
2025-09-23;16:34:11;discharging;3.302;49;88
2025-09-23;16:34:13;discharging;3.302;49;88
2025-09-23;16:34:15;discharging;3.301;49;89
2025-09-23;16:34:17;discharging;3.307;49;89
2025-09-23;16:34:19;discharging;3.302;49;89
2025-09-23;16:34:21;discharging;3.302;49;89
2025-09-23;16:34:23;discharging;3.301;49;90
2025-09-23;16:34:25;discharging;3.301;50;90
2025-09-23;16:34:27;discharging;3.302;49;90
2025-09-23;16:34:29;discharging;3.301;49;91
2025-09-23;16:34:31;discharging;3.301;49;91
2025-09-23;16:34:33;discharging;3.301;49;91
2025-09-23;16:34:35;discharging;3.301;49;91
2025-09-23;16:34:37;discharging;3.301;50;92
2025-09-23;16:34:39;discharging;3.301;50;92
2025-09-23;16:34:41;discharging;3.301;49;92
2025-09-23;16:34:43;discharging;3.301;49;93
2025-09-23;16:34:45;discharging;3.301;50;93
2025-09-23;16:34:47;discharging;3.301;50;93
2025-09-23;16:34:49;discharging;3.301;50;93
2025-09-23;16:34:51;discharging;3.302;49;94
2025-09-23;16:34:53;discharging;3.302;49;94
2025-09-23;16:34:55;discharging;3.302;49;94
2025-09-23;16:34:57;discharging;3.301;50;94
2025-09-23;16:34:59;discharging;3.301;50;95
2025-09-23;16:35:01;discharging;3.301;50;95
2025-09-23;16:35:03;discharging;3.301;50;95
2025-09-23;16:35:05;discharging;3.302;49;96
2025-09-23;16:35:07;discharging;3.301;49;96
2025-09-23;16:35:09;discharging;3.302;49;96
2025-09-23;16:35:11;discharging;3.301;50;96
2025-09-23;16:35:13;discharging;3.302;50;97
2025-09-23;16:35:15;discharging;3.302;50;97
2025-09-23;16:35:17;discharging;3.301;50;97
2025-09-23;16:35:19;discharging;3.302;49;98
2025-09-23;16:35:21;discharging;3.302;49;98
2025-09-23;16:35:23;discharging;3.301;50;98
2025-09-23;16:35:25;discharging;3.302;50;98
2025-09-23;16:35:27;discharging;3.302;50;99
2025-09-23;16:35:29;discharging;3.302;50;99
2025-09-23;16:35:31;discharging;3.302;49;99
2025-09-23;16:35:33;discharging;3.302;49;100
2025-09-23;16:35:35;discharging;3.302;49;100
2025-09-23;16:35:37;discharging;3.303;50;100
2025-09-23;16:35:39;discharging;3.303;50;100
2025-09-23;16:35:41;discharging;3.303;50;101
2025-09-23;16:35:43;discharging;3.303;50;101
2025-09-23;16:35:45;discharging;3.303;49;101
2025-09-23;16:35:47;discharging;3.304;49;102
2025-09-23;16:35:49;discharging;3.304;49;102
2025-09-23;16:35:51;discharging;3.305;49;102
2025-09-23;16:35:53;discharging;3.305;50;102
2025-09-23;16:35:55;discharging;3.304;50;103
2025-09-23;16:35:57;discharging;3.303;50;103
2025-09-23;16:35:59;discharging;3.306;49;103
2025-09-23;16:36:01;discharging;3.307;49;104
2025-09-23;16:36:03;discharging;3.306;49;104
2025-09-23;16:36:05;discharging;3.306;49;104
2025-09-23;16:36:07;discharging;3.306;49;104
2025-09-23;16:36:09;discharging;3.305;50;105
2025-09-23;16:36:11;discharging;3.305;50;105
2025-09-23;16:36:13;discharging;3.305;50;105
2025-09-23;16:36:15;discharging;3.306;49;105
2025-09-23;16:36:17;discharging;3.305;49;106
2025-09-23;16:36:19;discharging;3.305;49;106
2025-09-23;16:36:21;discharging;3.305;49;106
2025-09-23;16:36:23;discharging;3.305;50;107
2025-09-23;16:36:25;discharging;3.306;50;107
2025-09-23;16:36:27;discharging;3.307;50;107
2025-09-23;16:36:29;discharging;3.306;50;107
2025-09-23;16:36:31;discharging;3.306;50;108
2025-09-23;16:36:33;discharging;3.307;49;108
2025-09-23;16:36:35;discharging;3.307;49;108
2025-09-23;16:36:37;discharging;3.307;50;109
2025-09-23;16:36:39;discharging;3.307;50;109
2025-09-23;16:36:41;discharging;3.306;50;109
2025-09-23;16:36:43;discharging;3.307;50;109
2025-09-23;16:36:45;discharging;3.306;50;110
2025-09-23;16:36:47;discharging;3.308;49;110
2025-09-23;16:36:49;discharging;3.308;49;110
2025-09-23;16:36:51;discharging;3.308;49;111
2025-09-23;16:36:53;discharging;3.307;50;111
2025-09-23;16:36:55;discharging;3.307;50;111
2025-09-23;16:36:57;discharging;3.307;50;111
2025-09-23;16:36:59;discharging;3.307;50;112
2025-09-23;16:37:01;discharging;3.308;49;112
2025-09-23;16:37:03;discharging;3.308;49;112
2025-09-23;16:37:05;discharging;3.308;49;113
2025-09-23;16:37:07;discharging;3.308;49;113
2025-09-23;16:37:09;discharging;3.308;49;113
2025-09-23;16:37:11;discharging;3.308;50;113
2025-09-23;16:37:13;discharging;3.308;50;114
2025-09-23;16:37:15;discharging;3.308;49;114
2025-09-23;16:37:17;discharging;3.308;49;114
2025-09-23;16:37:19;discharging;3.308;49;114
2025-09-23;16:37:21;discharging;3.308;49;115
2025-09-23;16:37:23;discharging;3.308;49;115
2025-09-23;16:37:25;discharging;3.308;50;115
2025-09-23;16:37:27;discharging;3.308;50;116
2025-09-23;16:37:29;discharging;3.308;50;116
2025-09-23;16:37:31;discharging;3.308;50;116
2025-09-23;16:37:33;discharging;3.308;49;116
2025-09-23;16:37:35;discharging;3.308;49;117
2025-09-23;16:37:37;discharging;3.308;49;117
2025-09-23;16:37:39;discharging;3.308;50;117
2025-09-23;16:37:41;discharging;3.308;50;118
2025-09-23;16:37:43;discharging;3.308;50;118
2025-09-23;16:37:45;discharging;3.307;50;118
2025-09-23;16:37:47;discharging;3.308;50;118
2025-09-23;16:37:49;discharging;3.308;49;119
2025-09-23;16:37:51;discharging;3.308;49;119
2025-09-23;16:37:53;discharging;3.308;50;119
2025-09-23;16:37:55;discharging;3.308;50;120
2025-09-23;16:37:57;discharging;3.308;50;120
2025-09-23;16:37:59;discharging;3.308;50;120
2025-09-23;16:38:01;discharging;3.308;50;120
2025-09-23;16:38:03;discharging;3.308;49;121
2025-09-23;16:38:05;discharging;3.308;49;121
2025-09-23;16:38:07;discharging;3.308;49;121
2025-09-23;16:38:09;discharging;3.308;49;121
2025-09-23;16:38:11;discharging;3.307;50;122
2025-09-23;16:38:13;discharging;3.307;50;122
2025-09-23;16:38:15;discharging;3.307;50;122
2025-09-23;16:38:17;discharging;3.308;49;123
2025-09-23;16:38:19;discharging;3.308;49;123
2025-09-23;16:38:21;discharging;3.308;49;123
2025-09-23;16:38:23;discharging;3.308;49;123
2025-09-23;16:38:25;discharging;3.308;49;124
2025-09-23;16:38:27;discharging;3.308;50;124
2025-09-23;16:38:29;discharging;3.308;50;124
2025-09-23;16:38:31;discharging;3.308;50;125
2025-09-23;16:38:33;discharging;3.308;49;125
2025-09-23;16:38:35;discharging;3.308;49;125
2025-09-23;16:38:37;discharging;3.308;49;125
2025-09-23;16:38:39;discharging;3.308;49;126
2025-09-23;16:38:41;discharging;3.308;50;126
2025-09-23;16:38:43;discharging;3.308;50;126
2025-09-23;16:38:45;discharging;3.308;50;127
2025-09-23;16:38:47;discharging;3.308;50;127
2025-09-23;16:38:49;discharging;3.308;49;127
2025-09-23;16:38:51;discharging;3.308;49;127
2025-09-23;16:38:53;discharging;3.308;49;128
2025-09-23;16:38:55;discharging;3.308;50;128
2025-09-23;16:38:57;discharging;3.308;50;128
2025-09-23;16:38:59;discharging;3.308;50;129
2025-09-23;16:39:01;discharging;3.307;50;129
2025-09-23;16:39:03;discharging;3.308;50;129
2025-09-23;16:39:05;discharging;3.308;50;129
2025-09-23;16:39:07;discharging;3.308;49;130
2025-09-23;16:39:09;discharging;3.308;49;130
2025-09-23;16:39:11;discharging;3.308;50;130
2025-09-23;16:39:13;discharging;3.308;50;130
2025-09-23;16:39:15;discharging;3.308;50;131
2025-09-23;16:39:17;discharging;3.308;50;131
2025-09-23;16:39:19;discharging;3.308;49;131
2025-09-23;16:39:21;discharging;3.308;49;132
2025-09-23;16:39:23;discharging;3.308;49;132
2025-09-23;16:39:25;discharging;3.308;49;132
2025-09-23;16:39:27;discharging;3.308;49;132
2025-09-23;16:39:29;discharging;3.307;50;133
2025-09-23;16:39:31;discharging;3.308;50;133
2025-09-23;16:39:33;discharging;3.308;49;133
2025-09-23;16:39:35;discharging;3.308;49;134
2025-09-23;16:39:37;discharging;3.308;49;134
2025-09-23;16:39:39;discharging;3.308;49;134
2025-09-23;16:39:41;discharging;3.308;49;134
2025-09-23;16:39:43;discharging;3.308;49;135
2025-09-23;16:39:45;discharging;3.308;50;135
2025-09-23;16:39:47;discharging;3.308;50;135
2025-09-23;16:39:49;discharging;3.308;50;136
2025-09-23;16:39:51;discharging;3.308;49;136
2025-09-23;16:39:53;discharging;3.308;49;136
2025-09-23;16:39:55;discharging;3.308;49;136
2025-09-23;16:39:57;discharging;3.308;49;137
2025-09-23;16:39:59;discharging;3.308;49;137
2025-09-23;16:40:01;discharging;3.308;49;137
2025-09-23;16:40:03;discharging;3.303;49;138
2025-09-23;16:40:05;discharging;3.302;49;138
2025-09-23;16:40:07;discharging;3.302;49;138
2025-09-23;16:40:09;discharging;3.306;50;138
2025-09-23;16:40:11;discharging;3.302;50;139
2025-09-23;16:40:13;discharging;3.305;49;139
2025-09-23;16:40:15;discharging;3.306;50;139
2025-09-23;16:40:17;discharging;3.304;50;139
2025-09-23;16:40:19;discharging;3.302;49;140
2025-09-23;16:40:21;discharging;3.305;49;140
2025-09-23;16:40:23;discharging;3.309;50;140
2025-09-23;16:40:25;discharging;3.302;50;141
2025-09-23;16:40:27;discharging;3.294;49;141
2025-09-23;16:40:29;discharging;3.303;49;141
2025-09-23;16:40:31;discharging;3.312;50;141
2025-09-23;16:40:33;discharging;3.297;50;142
2025-09-23;16:40:35;discharging;3.294;49;142
2025-09-23;16:40:37;discharging;3.309;50;142
2025-09-23;16:40:39;discharging;3.296;49;143
2025-09-23;16:40:41;discharging;3.308;50;143
2025-09-23;16:40:43;discharging;3.316;50;143
2025-09-23;16:40:45;discharging;3.302;49;143
2025-09-23;16:40:47;discharging;3.3;49;144
2025-09-23;16:40:49;discharging;3.299;49;144
2025-09-23;16:40:51;discharging;3.299;49;144
2025-09-23;16:40:53;discharging;3.295;50;145
2025-09-23;16:40:55;discharging;3.299;49;145
2025-09-23;16:40:57;discharging;3.302;50;145
2025-09-23;16:40:59;discharging;3.302;49;145
2025-09-23;16:41:01;discharging;3.302;50;146
2025-09-23;16:41:03;discharging;3.302;49;146
2025-09-23;16:41:05;discharging;3.312;49;146
2025-09-23;16:41:07;discharging;3.302;50;147
2025-09-23;16:41:09;discharging;3.302;50;147
2025-09-23;16:41:11;discharging;3.3;49;147
2025-09-23;16:41:13;discharging;3.309;50;147
2025-09-23;16:41:15;discharging;3.303;49;148
2025-09-23;16:41:17;discharging;3.307;49;148
2025-09-23;16:41:19;discharging;3.301;50;148
2025-09-23;16:41:21;discharging;3.302;49;148
2025-09-23;16:41:23;discharging;3.31;49;149
2025-09-23;16:41:25;discharging;3.303;49;149
2025-09-23;16:41:27;discharging;3.302;49;149
2025-09-23;16:41:29;discharging;3.309;49;150
2025-09-23;16:41:31;discharging;3.302;50;150
2025-09-23;16:41:33;discharging;3.301;50;150
2025-09-23;16:41:35;discharging;3.3;49;150
2025-09-23;16:41:37;discharging;3.299;50;151
2025-09-23;16:41:39;discharging;3.301;49;151
2025-09-23;16:41:41;discharging;3.302;50;151
2025-09-23;16:41:43;discharging;3.301;50;152
2025-09-23;16:41:45;discharging;3.301;50;152
2025-09-23;16:41:47;discharging;3.301;50;152
2025-09-23;16:41:49;discharging;3.301;49;152
2025-09-23;16:41:51;discharging;3.3;49;153
2025-09-23;16:41:53;discharging;3.309;49;153
2025-09-23;16:41:55;discharging;3.303;50;153
2025-09-23;16:41:57;discharging;3.301;50;154
2025-09-23;16:41:59;discharging;3.302;49;154
2025-09-23;16:42:01;discharging;3.3;49;154
2025-09-23;16:42:03;discharging;3.3;49;154
2025-09-23;16:42:05;discharging;3.3;50;155
2025-09-23;16:42:07;discharging;3.3;50;155
2025-09-23;16:42:09;discharging;3.301;49;155
2025-09-23;16:42:11;discharging;3.3;50;156
2025-09-23;16:42:13;discharging;3.3;50;156
2025-09-23;16:42:15;discharging;3.3;50;156
2025-09-23;16:42:17;discharging;3.301;50;156
2025-09-23;16:42:19;discharging;3.302;49;157
2025-09-23;16:42:21;discharging;3.301;50;157
2025-09-23;16:42:23;discharging;3.301;50;157
2025-09-23;16:42:25;discharging;3.301;50;157
2025-09-23;16:42:27;discharging;3.301;50;158
2025-09-23;16:42:29;discharging;3.301;50;158
2025-09-23;16:42:31;discharging;3.301;49;158
2025-09-23;16:42:33;discharging;3.302;49;159
2025-09-23;16:42:35;discharging;3.301;49;159
2025-09-23;16:42:37;discharging;3.301;49;159
2025-09-23;16:42:39;discharging;3.301;49;159
2025-09-23;16:42:41;discharging;3.301;49;160
2025-09-23;16:42:43;discharging;3.301;49;160
2025-09-23;16:42:45;discharging;3.301;49;160
2025-09-23;16:42:47;discharging;3.301;49;161
2025-09-23;16:42:49;discharging;3.301;50;161
2025-09-23;16:42:51;discharging;3.302;49;161
2025-09-23;16:42:53;discharging;3.301;49;161
2025-09-23;16:42:55;discharging;3.301;49;162
2025-09-23;16:42:57;discharging;3.302;49;162
2025-09-23;16:42:59;discharging;3.301;50;162
2025-09-23;16:43:01;discharging;3.301;50;163
2025-09-23;16:43:03;discharging;3.301;50;163
2025-09-23;16:43:05;discharging;3.301;50;163
2025-09-23;16:43:07;discharging;3.301;49;163
2025-09-23;16:43:09;discharging;3.302;49;164
2025-09-23;16:43:11;discharging;3.301;50;164
2025-09-23;16:43:13;discharging;3.301;50;164
2025-09-23;16:43:15;discharging;3.301;50;165
2025-09-23;16:43:17;discharging;3.301;50;165
2025-09-23;16:43:19;discharging;3.301;50;165
2025-09-23;16:43:21;discharging;3.302;49;165
2025-09-23;16:43:23;discharging;3.302;49;166
2025-09-23;16:43:25;discharging;3.302;49;166
2025-09-23;16:43:27;discharging;3.302;49;166
2025-09-23;16:43:29;discharging;3.301;50;167
2025-09-23;16:43:31;discharging;3.301;50;167
2025-09-23;16:43:33;discharging;3.301;50;167
2025-09-23;16:43:35;discharging;3.302;49;167
2025-09-23;16:43:37;discharging;3.302;49;168
2025-09-23;16:43:39;discharging;3.302;49;168
2025-09-23;16:43:41;discharging;3.302;49;168
2025-09-23;16:43:43;discharging;3.302;49;168
2025-09-23;16:43:45;discharging;3.301;50;169
2025-09-23;16:43:47;discharging;3.301;50;169
2025-09-23;16:43:49;discharging;3.301;50;169
2025-09-23;16:43:51;discharging;3.302;49;170
2025-09-23;16:43:53;discharging;3.302;49;170
2025-09-23;16:43:55;discharging;3.302;49;170
2025-09-23;16:43:57;discharging;3.302;49;170
2025-09-23;16:43:59;discharging;3.301;50;171
2025-09-23;16:44:01;discharging;3.301;50;171
2025-09-23;16:44:03;discharging;3.301;50;171
2025-09-23;16:44:05;discharging;3.301;50;172
2025-09-23;16:44:07;discharging;3.302;49;172
2025-09-23;16:44:09;discharging;3.303;49;172
2025-09-23;16:44:11;discharging;3.302;49;172
2025-09-23;16:44:13;discharging;3.301;50;173
2025-09-23;16:44:15;discharging;3.301;50;173
2025-09-23;16:44:17;discharging;3.301;50;173
2025-09-23;16:44:19;discharging;3.301;50;174
2025-09-23;16:44:21;discharging;3.301;50;174
2025-09-23;16:44:23;discharging;3.302;49;174
2025-09-23;16:44:25;discharging;3.302;49;174
2025-09-23;16:44:27;discharging;3.302;49;175
2025-09-23;16:44:29;discharging;3.301;50;175
2025-09-23;16:44:31;discharging;3.301;50;175
2025-09-23;16:44:33;discharging;3.301;50;176
2025-09-23;16:44:35;discharging;3.301;50;176
2025-09-23;16:44:37;discharging;3.302;49;176
2025-09-23;16:44:39;discharging;3.302;49;176
2025-09-23;16:44:41;discharging;3.302;49;177
2025-09-23;16:44:43;discharging;3.302;49;177
2025-09-23;16:44:45;discharging;3.301;50;177
2025-09-23;16:44:47;discharging;3.301;50;177
2025-09-23;16:44:49;discharging;3.301;50;178
2025-09-23;16:44:51;discharging;3.302;49;178
2025-09-23;16:44:53;discharging;3.302;49;178
2025-09-23;16:44:55;discharging;3.302;49;179
2025-09-23;16:44:57;discharging;3.302;49;179
2025-09-23;16:44:59;discharging;3.302;49;179
2025-09-23;16:45:01;discharging;3.301;50;179
2025-09-23;16:45:03;discharging;3.301;50;180
2025-09-23;16:45:05;discharging;3.302;49;180
2025-09-23;16:45:07;discharging;3.302;49;180
2025-09-23;16:45:09;discharging;3.302;49;181
2025-09-23;16:45:11;discharging;3.302;49;181
2025-09-23;16:45:13;discharging;3.302;49;181
2025-09-23;16:45:15;discharging;3.301;50;181
2025-09-23;16:45:17;discharging;3.301;50;182
2025-09-23;16:45:19;discharging;3.301;50;182
2025-09-23;16:45:21;discharging;3.301;50;182
2025-09-23;16:45:23;discharging;3.302;49;183
2025-09-23;16:45:25;discharging;3.302;49;183
2025-09-23;16:45:27;discharging;3.302;49;183
2025-09-23;16:45:29;discharging;3.301;50;183
2025-09-23;16:45:31;discharging;3.301;50;184
2025-09-23;16:45:33;discharging;3.301;50;184
2025-09-23;16:45:35;discharging;3.301;50;184
2025-09-23;16:45:37;discharging;3.301;50;185
2025-09-23;16:45:39;discharging;3.302;49;185
2025-09-23;16:45:41;discharging;3.302;49;185
2025-09-23;16:45:43;discharging;3.301;50;185
2025-09-23;16:45:45;discharging;3.301;50;186
2025-09-23;16:45:47;discharging;3.301;50;186
2025-09-23;16:45:49;discharging;3.301;50;186
2025-09-23;16:45:51;discharging;3.301;50;186
2025-09-23;16:45:53;discharging;3.302;49;187
2025-09-23;16:45:55;discharging;3.302;49;187
2025-09-23;16:45:57;discharging;3.302;49;187
2025-09-23;16:45:59;discharging;3.301;50;188
2025-09-23;16:46:01;discharging;3.301;50;188
2025-09-23;16:46:03;discharging;3.301;50;188
2025-09-23;16:46:05;discharging;3.301;50;188
2025-09-23;16:46:07;discharging;3.302;49;189
2025-09-23;16:46:09;discharging;3.302;49;189
2025-09-23;16:46:11;discharging;3.302;49;189
2025-09-23;16:46:13;discharging;3.302;49;190
2025-09-23;16:46:15;discharging;3.302;49;190
2025-09-23;16:46:17;discharging;3.301;50;190
2025-09-23;16:46:19;discharging;3.301;50;190
2025-09-23;16:46:21;discharging;3.302;49;191
2025-09-23;16:46:23;discharging;3.301;50;191
2025-09-23;16:46:25;discharging;3.301;50;191
2025-09-23;16:46:27;discharging;3.301;50;192
2025-09-23;16:46:29;discharging;3.301;50;192
2025-09-23;16:46:31;discharging;3.3;50;192
2025-09-23;16:46:33;discharging;3.3;50;192
2025-09-23;16:46:35;discharging;3.3;50;193
2025-09-23;16:46:37;discharging;3.3;50;193
2025-09-23;16:46:39;discharging;3.3;49;193
2025-09-23;16:46:41;discharging;3.3;49;193
2025-09-23;16:46:43;discharging;3.3;49;194
2025-09-23;16:46:45;discharging;3.299;50;194
2025-09-23;16:46:47;discharging;3.3;49;194
2025-09-23;16:46:49;discharging;3.3;49;195
2025-09-23;16:46:51;discharging;3.299;50;195
2025-09-23;16:46:53;discharging;3.3;49;195
2025-09-23;16:46:55;discharging;3.299;50;195
2025-09-23;16:46:57;discharging;3.299;49;196
2025-09-23;16:46:59;discharging;3.3;49;196
2025-09-23;16:47:01;discharging;3.299;49;196
2025-09-23;16:47:03;discharging;3.299;49;197
2025-09-23;16:47:05;discharging;3.298;50;197
2025-09-23;16:47:07;discharging;3.296;49;197
2025-09-23;16:47:09;discharging;3.297;50;197
2025-09-23;16:47:11;discharging;3.295;49;198
2025-09-23;16:47:13;discharging;3.297;49;198
2025-09-23;16:47:15;discharging;3.295;49;198
2025-09-23;16:47:17;discharging;3.296;50;199
2025-09-23;16:47:19;discharging;3.294;49;199
2025-09-23;16:47:21;discharging;3.303;50;199
2025-09-23;16:47:23;discharging;3.294;50;199
2025-09-23;16:47:25;discharging;3.294;49;200
2025-09-23;16:47:27;discharging;3.298;50;200
2025-09-23;16:47:29;discharging;3.294;49;200
2025-09-23;16:47:31;discharging;3.304;50;201
2025-09-23;16:47:33;discharging;3.294;50;201
2025-09-23;16:47:35;discharging;3.299;50;201
2025-09-23;16:47:37;discharging;3.309;50;201
2025-09-23;16:47:39;discharging;3.303;50;202
2025-09-23;16:47:41;discharging;3.297;50;202
2025-09-23;16:47:43;discharging;3.294;49;202
2025-09-23;16:47:45;discharging;3.299;50;202
2025-09-23;16:47:47;discharging;3.294;50;203
2025-09-23;16:47:49;discharging;3.299;49;203
2025-09-23;16:47:51;discharging;3.297;50;203
2025-09-23;16:47:53;discharging;3.294;49;204
2025-09-23;16:47:55;discharging;3.309;50;204
2025-09-23;16:47:57;discharging;3.303;49;204
2025-09-23;16:47:59;discharging;3.297;50;204
2025-09-23;16:48:01;discharging;3.294;49;205
2025-09-23;16:48:03;discharging;3.298;50;205
2025-09-23;16:48:05;discharging;3.295;50;205
2025-09-23;16:48:07;discharging;3.299;49;206
2025-09-23;16:48:09;discharging;3.297;50;206
2025-09-23;16:48:11;discharging;3.297;49;206
2025-09-23;16:48:13;discharging;3.298;50;206
2025-09-23;16:48:15;discharging;3.299;50;207
2025-09-23;16:48:17;discharging;3.294;49;207
2025-09-23;16:48:19;discharging;3.298;50;207
2025-09-23;16:48:21;discharging;3.306;50;208
2025-09-23;16:48:23;discharging;3.295;50;208
2025-09-23;16:48:25;discharging;3.294;50;208
2025-09-23;16:48:27;discharging;3.297;49;208
2025-09-23;16:48:29;discharging;3.305;50;209
2025-09-23;16:48:31;discharging;3.308;50;209
2025-09-23;16:48:33;discharging;3.294;50;209
2025-09-23;16:48:35;discharging;3.294;49;210
2025-09-23;16:48:37;discharging;3.298;50;210
2025-09-23;16:48:39;discharging;3.306;50;210
2025-09-23;16:48:41;discharging;3.296;50;210
2025-09-23;16:48:43;discharging;3.294;49;211
2025-09-23;16:48:45;discharging;3.297;49;211
2025-09-23;16:48:47;discharging;3.297;50;211
2025-09-23;16:48:49;discharging;3.307;50;211
2025-09-23;16:48:51;discharging;3.296;50;212
2025-09-23;16:48:53;discharging;3.294;49;212
2025-09-23;16:48:55;discharging;3.297;49;212
2025-09-23;16:48:57;discharging;3.303;50;213
2025-09-23;16:48:59;discharging;3.296;50;213
2025-09-23;16:49:01;discharging;3.294;50;213
2025-09-23;16:49:03;discharging;3.298;49;213
2025-09-23;16:49:05;discharging;3.297;50;214
2025-09-23;16:49:07;discharging;3.309;50;214
2025-09-23;16:49:09;discharging;3.3;49;214
2025-09-23;16:49:11;discharging;3.31;50;215
2025-09-23;16:49:13;discharging;3.307;50;215
2025-09-23;16:49:15;discharging;3.299;49;215
2025-09-23;16:49:17;discharging;3.304;50;215
2025-09-23;16:49:19;discharging;3.301;50;216
2025-09-23;16:49:21;discharging;3.297;49;216
2025-09-23;16:49:23;discharging;3.297;50;216
2025-09-23;16:49:25;discharging;3.289;50;217
2025-09-23;16:49:27;discharging;3.293;49;217
2025-09-23;16:49:29;discharging;3.295;50;217
2025-09-23;16:49:31;discharging;3.293;50;217
2025-09-23;16:49:33;discharging;3.286;49;218
2025-09-23;16:49:35;discharging;3.301;49;218
2025-09-23;16:49:37;discharging;3.292;50;218
2025-09-23;16:49:39;discharging;3.306;50;218
2025-09-23;16:49:41;discharging;3.296;49;219
2025-09-23;16:49:43;discharging;3.292;50;219
2025-09-23;16:49:45;discharging;3.29;49;219
2025-09-23;16:49:47;discharging;3.291;50;220
2025-09-23;16:49:49;discharging;3.287;50;220
2025-09-23;16:49:51;discharging;3.292;49;220
2025-09-23;16:49:53;discharging;3.304;50;220
2025-09-23;16:49:55;discharging;3.301;50;221
2025-09-23;16:49:57;discharging;3.296;49;221
2025-09-23;16:49:59;discharging;3.301;50;221
2025-09-23;16:50:01;discharging;3.294;49;222
2025-09-23;16:50:03;discharging;3.286;49;222
2025-09-23;16:50:05;discharging;3.297;50;222
2025-09-23;16:50:07;discharging;3.301;50;222
2025-09-23;16:50:09;discharging;3.294;49;223
2025-09-23;16:50:11;discharging;3.288;50;223
2025-09-23;16:50:13;discharging;3.29;49;223
2025-09-23;16:50:15;discharging;3.289;49;224
2025-09-23;16:50:17;discharging;3.29;50;224
2025-09-23;16:50:19;discharging;3.292;50;224
2025-09-23;16:50:21;discharging;3.292;49;224
2025-09-23;16:50:23;discharging;3.292;49;225
2025-09-23;16:50:25;discharging;3.292;49;225
2025-09-23;16:50:27;discharging;3.291;50;225
2025-09-23;16:50:29;discharging;3.291;50;225
2025-09-23;16:50:31;discharging;3.291;50;226
2025-09-23;16:50:33;discharging;3.292;49;226
2025-09-23;16:50:35;discharging;3.292;49;226
2025-09-23;16:50:37;discharging;3.292;49;227
2025-09-23;16:50:39;discharging;3.291;49;227
2025-09-23;16:50:41;discharging;3.292;49;227
2025-09-23;16:50:43;discharging;3.291;50;227
2025-09-23;16:50:45;discharging;3.292;50;228
2025-09-23;16:50:47;discharging;3.292;49;228
2025-09-23;16:50:49;discharging;3.291;49;228
2025-09-23;16:50:51;discharging;3.291;49;229
2025-09-23;16:50:53;discharging;3.291;49;229
2025-09-23;16:50:55;discharging;3.291;49;229
2025-09-23;16:50:57;discharging;3.292;49;229
2025-09-23;16:50:59;discharging;3.29;50;230
2025-09-23;16:51:01;discharging;3.291;50;230
2025-09-23;16:51:03;discharging;3.292;49;230
2025-09-23;16:51:05;discharging;3.291;49;231
2025-09-23;16:51:07;discharging;3.29;50;231
2025-09-23;16:51:09;discharging;3.29;50;231
2025-09-23;16:51:11;discharging;3.291;50;231
2025-09-23;16:51:13;discharging;3.289;49;232
2025-09-23;16:51:15;discharging;3.291;49;232
2025-09-23;16:51:17;discharging;3.292;49;232
2025-09-23;16:51:19;discharging;3.29;50;233
2025-09-23;16:51:21;discharging;3.289;50;233
2025-09-23;16:51:23;discharging;3.288;49;233
2025-09-23;16:51:25;discharging;3.287;50;233
2025-09-23;16:51:27;discharging;3.288;49;234
2025-09-23;16:51:29;discharging;3.287;49;234
2025-09-23;16:51:31;discharging;3.285;49;234
2025-09-23;16:51:33;discharging;3.291;49;235
2025-09-23;16:51:35;discharging;3.288;49;235
2025-09-23;16:51:37;discharging;3.286;49;235
2025-09-23;16:51:39;discharging;3.286;49;235
2025-09-23;16:51:41;discharging;3.286;50;236
2025-09-23;16:51:43;discharging;3.28;50;236
2025-09-23;16:51:45;discharging;3.282;49;236
2025-09-23;16:51:47;discharging;3.285;50;236
2025-09-23;16:51:49;discharging;3.286;49;237
2025-09-23;16:51:51;discharging;3.279;50;237
2025-09-23;16:51:53;discharging;3.285;50;237
2025-09-23;16:51:55;discharging;3.283;50;238
2025-09-23;16:51:57;discharging;3.285;49;238
2025-09-23;16:51:59;discharging;3.284;50;238
2025-09-23;16:52:01;discharging;3.279;50;238
2025-09-23;16:52:03;discharging;3.285;50;239
2025-09-23;16:52:05;discharging;3.282;50;239
2025-09-23;16:52:07;discharging;3.284;49;239
2025-09-23;16:52:09;discharging;3.284;50;240
2025-09-23;16:52:11;discharging;3.293;50;240
2025-09-23;16:52:13;discharging;3.288;49;240
2025-09-23;16:52:15;discharging;3.283;50;240
2025-09-23;16:52:17;discharging;3.279;49;241
2025-09-23;16:52:19;discharging;3.283;50;241
2025-09-23;16:52:21;discharging;3.281;50;241
2025-09-23;16:52:23;discharging;3.284;49;242
2025-09-23;16:52:25;discharging;3.282;50;242
2025-09-23;16:52:27;discharging;3.279;50;242
2025-09-23;16:52:29;discharging;3.285;50;242
2025-09-23;16:52:31;discharging;3.282;50;243
2025-09-23;16:52:33;discharging;3.279;49;243
2025-09-23;16:52:35;discharging;3.284;50;243
2025-09-23;16:52:37;discharging;3.28;50;244
2025-09-23;16:52:39;discharging;3.283;49;244
2025-09-23;16:52:41;discharging;3.283;50;244
2025-09-23;16:52:43;discharging;3.28;50;244
2025-09-23;16:52:45;discharging;3.283;49;245
2025-09-23;16:52:47;discharging;3.283;50;245
2025-09-23;16:52:49;discharging;3.279;50;245
2025-09-23;16:52:51;discharging;3.284;49;245
2025-09-23;16:52:53;discharging;3.282;50;246
2025-09-23;16:52:55;discharging;3.28;50;246
2025-09-23;16:52:57;discharging;3.284;49;246
2025-09-23;16:52:59;discharging;3.282;50;247
2025-09-23;16:53:01;discharging;3.279;49;247
2025-09-23;16:53:03;discharging;3.283;49;247
2025-09-23;16:53:05;discharging;3.283;50;247
2025-09-23;16:53:07;discharging;3.28;50;248
2025-09-23;16:53:09;discharging;3.282;49;248
2025-09-23;16:53:11;discharging;3.283;50;248
2025-09-23;16:53:13;discharging;3.281;50;249
2025-09-23;16:53:15;discharging;3.279;49;249
2025-09-23;16:53:17;discharging;3.283;50;249
2025-09-23;16:53:19;discharging;3.281;50;249
2025-09-23;16:53:21;discharging;3.279;49;250
2025-09-23;16:53:23;discharging;3.283;49;250
2025-09-23;16:53:25;discharging;3.283;50;250
2025-09-23;16:53:27;discharging;3.279;50;251
2025-09-23;16:53:29;discharging;3.283;49;251
2025-09-23;16:53:31;discharging;3.282;50;251
2025-09-23;16:53:33;discharging;3.281;50;251
2025-09-23;16:53:35;discharging;3.279;49;252
2025-09-23;16:53:37;discharging;3.283;50;252
[...]
2025-09-23;17:04:53;discharging;3.229;49;346
2025-09-23;17:04:55;discharging;3.225;50;347
2025-09-23;17:04:57;discharging;3.225;49;347
2025-09-23;17:04:59;discharging;3.224;49;347
2025-09-23;17:05:01;discharging;3.223;49;347
2025-09-23;17:05:03;discharging;3.225;49;348
2025-09-23;17:05:05;discharging;3.213;49;348
2025-09-23;17:05:07;discharging;3.222;49;348
2025-09-23;17:05:09;discharging;3.221;49;349
2025-09-23;17:05:11;discharging;3.224;49;349
2025-09-23;17:05:13;discharging;3.22;50;349
2025-09-23;17:05:15;discharging;3.225;49;349
2025-09-23;17:05:17;discharging;3.225;49;350
2025-09-23;17:05:19;discharging;3.225;49;350
2025-09-23;17:05:21;discharging;3.225;49;350
2025-09-23;17:05:23;discharging;3.225;49;351
2025-09-23;17:05:25;discharging;3.225;49;351
2025-09-23;17:05:27;discharging;3.226;49;351
2025-09-23;17:05:29;discharging;3.225;49;351
2025-09-23;17:05:31;discharging;3.225;49;352
2025-09-23;17:05:33;discharging;3.217;49;352
2025-09-23;17:05:35;discharging;3.235;49;352
2025-09-23;17:05:37;discharging;3.224;49;352
2025-09-23;17:05:39;discharging;3.224;49;353
2025-09-23;17:05:41;discharging;3.225;49;353
2025-09-23;17:05:43;discharging;3.221;49;353
2025-09-23;17:05:45;discharging;3.22;49;354
2025-09-23;17:05:47;discharging;3.221;49;354
2025-09-23;17:05:49;discharging;3.217;49;354
2025-09-23;17:05:51;discharging;3.217;49;354
2025-09-23;17:05:53;discharging;3.22;49;355
2025-09-23;17:05:55;discharging;3.224;49;355
2025-09-23;17:05:57;discharging;3.219;49;355
2025-09-23;17:05:59;discharging;3.217;49;356
2025-09-23;17:06:01;discharging;3.217;49;356
2025-09-23;17:06:03;discharging;3.217;49;356
2025-09-23;17:06:05;discharging;3.211;50;356
2025-09-23;17:06:07;discharging;3.215;49;357
2025-09-23;17:06:09;discharging;3.21;49;357
2025-09-23;17:06:11;discharging;3.208;50;357
2025-09-23;17:06:13;discharging;3.21;49;358
2025-09-23;17:06:15;discharging;3.208;50;358
2025-09-23;17:06:17;discharging;3.208;50;358
2025-09-23;17:06:19;discharging;3.208;50;358
2025-09-23;17:06:21;discharging;3.208;50;359
2025-09-23;17:06:23;discharging;3.208;49;359
2025-09-23;17:06:25;discharging;3.208;49;359
2025-09-23;17:06:27;discharging;3.208;49;359
2025-09-23;17:06:29;discharging;3.208;49;360
2025-09-23;17:06:31;discharging;3.207;50;360
2025-09-23;17:06:33;discharging;3.207;50;360
2025-09-23;17:06:35;discharging;3.207;50;361
2025-09-23;17:06:37;discharging;3.208;49;361
2025-09-23;17:06:39;discharging;3.207;49;361
2025-09-23;17:06:41;discharging;3.207;49;361
2025-09-23;17:06:43;discharging;3.207;49;362
2025-09-23;17:06:45;discharging;3.207;49;362
2025-09-23;17:06:47;discharging;3.207;50;362
2025-09-23;17:06:49;discharging;3.207;50;363
2025-09-23;17:06:51;discharging;3.207;50;363
2025-09-23;17:06:53;discharging;3.207;50;363
2025-09-23;17:06:55;discharging;3.207;49;363
2025-09-23;17:06:57;discharging;3.207;49;364
2025-09-23;17:06:59;discharging;3.207;49;364
2025-09-23;17:07:01;discharging;3.207;50;364
2025-09-23;17:07:03;discharging;3.207;50;365
2025-09-23;17:07:05;discharging;3.207;50;365
2025-09-23;17:07:07;discharging;3.207;50;365
2025-09-23;17:07:09;discharging;3.207;50;365
2025-09-23;17:07:11;discharging;3.207;50;366
2025-09-23;17:07:13;discharging;3.207;49;366
2025-09-23;17:07:15;discharging;3.207;49;366
2025-09-23;17:07:17;discharging;3.206;49;367
2025-09-23;17:07:19;discharging;3.206;50;367
2025-09-23;17:07:21;discharging;3.206;50;367
2025-09-23;17:07:23;discharging;3.206;50;367
2025-09-23;17:07:25;discharging;3.205;49;368
2025-09-23;17:07:27;discharging;3.205;49;368
2025-09-23;17:07:29;discharging;3.206;49;368
2025-09-23;17:07:31;discharging;3.205;49;368
2025-09-23;17:07:33;discharging;3.205;49;369
2025-09-23;17:07:35;discharging;3.204;49;369
2025-09-23;17:07:37;discharging;3.203;49;369
2025-09-23;17:07:39;discharging;3.203;49;370
2025-09-23;17:07:41;discharging;3.203;49;370
2025-09-23;17:07:43;discharging;3.202;50;370
2025-09-23;17:07:45;discharging;3.201;50;370
2025-09-23;17:07:47;discharging;3.202;49;371
2025-09-23;17:07:49;discharging;3.201;50;371
2025-09-23;17:07:51;discharging;3.202;49;371
2025-09-23;17:07:53;discharging;3.2;50;372
2025-09-23;17:07:55;discharging;3.2;49;372
2025-09-23;17:07:57;discharging;3.2;49;372
2025-09-23;17:07:59;discharging;3.201;49;372
2025-09-23;17:08:01;discharging;3.2;49;373
2025-09-23;17:08:03;discharging;3.199;49;373
2025-09-23;17:08:05;discharging;3.195;49;373
2025-09-23;17:08:07;discharging;3.194;49;374
2025-09-23;17:08:09;discharging;3.194;49;374
2025-09-23;17:08:11;discharging;3.203;50;374
2025-09-23;17:08:13;discharging;3.194;49;374
2025-09-23;17:08:15;discharging;3.194;49;375
2025-09-23;17:08:17;discharging;3.204;50;375
2025-09-23;17:08:19;discharging;3.201;49;375
2025-09-23;17:08:21;discharging;3.195;49;376
2025-09-23;17:08:23;discharging;3.196;49;376
2025-09-23;17:08:25;discharging;3.215;50;376
2025-09-23;17:08:27;discharging;3.198;50;376
2025-09-23;17:08:29;discharging;3.194;49;377
2025-09-23;17:08:31;discharging;3.203;50;377
2025-09-23;17:08:33;discharging;3.194;50;377
2025-09-23;17:08:35;discharging;3.199;50;378
2025-09-23;17:08:37;discharging;3.197;50;378
2025-09-23;17:08:39;discharging;3.199;49;378
2025-09-23;17:08:41;discharging;3.198;50;378
2025-09-23;17:08:43;discharging;3.194;49;379
2025-09-23;17:08:45;discharging;3.199;50;379
2025-09-23;17:08:47;discharging;3.196;50;379
2025-09-23;17:08:49;discharging;3.199;49;379
2025-09-23;17:08:51;discharging;3.198;50;380
2025-09-23;17:08:53;discharging;3.194;49;380
2025-09-23;17:08:55;discharging;3.198;50;380
2025-09-23;17:08:57;discharging;3.194;50;381
2025-09-23;17:08:59;discharging;3.198;50;381
2025-09-23;17:09:01;discharging;3.197;50;381
2025-09-23;17:09:03;discharging;3.186;49;381
2025-09-23;17:09:05;discharging;3.203;50;382
2025-09-23;17:09:07;discharging;3.195;50;382
2025-09-23;17:09:09;discharging;3.198;49;382
2025-09-23;17:09:11;discharging;3.207;50;383
2025-09-23;17:09:13;discharging;3.187;49;383
2025-09-23;17:09:15;discharging;3.203;50;383
2025-09-23;17:09:17;discharging;3.191;50;383
2025-09-23;17:09:19;discharging;3.196;49;384
2025-09-23;17:09:21;discharging;3.203;50;384
2025-09-23;17:09:23;discharging;3.188;50;384
2025-09-23;17:09:25;discharging;3.203;49;385
2025-09-23;17:09:27;discharging;3.193;50;385
2025-09-23;17:09:29;discharging;3.193;50;385
2025-09-23;17:09:31;discharging;3.197;50;385
2025-09-23;17:09:33;discharging;3.204;50;386
2025-09-23;17:09:35;discharging;3.193;49;386
2025-09-23;17:09:37;discharging;3.197;50;386
2025-09-23;17:09:39;discharging;3.194;50;386
2025-09-23;17:09:41;discharging;3.186;49;387
2025-09-23;17:09:43;discharging;3.203;50;387
2025-09-23;17:09:45;discharging;3.209;50;387
2025-09-23;17:09:47;discharging;3.201;49;388
2025-09-23;17:09:49;discharging;3.196;50;388
2025-09-23;17:09:51;discharging;3.194;50;388
2025-09-23;17:09:53;discharging;3.198;50;388
2025-09-23;17:09:55;discharging;3.206;50;389
2025-09-23;17:09:57;discharging;3.199;49;389
2025-09-23;17:09:59;discharging;3.198;50;389
2025-09-23;17:10:01;discharging;3.194;50;390
2025-09-23;17:10:03;discharging;3.197;49;390
2025-09-23;17:10:05;discharging;3.198;50;390
2025-09-23;17:10:07;discharging;3.196;50;390
2025-09-23;17:10:09;discharging;3.208;50;391
2025-09-23;17:10:11;discharging;3.194;50;391
2025-09-23;17:10:13;discharging;3.194;49;391
2025-09-23;17:10:15;discharging;3.194;49;392
2025-09-23;17:10:17;discharging;3.198;49;392
2025-09-23;17:10:19;discharging;3.205;50;392
2025-09-23;17:10:21;discharging;3.197;50;392
2025-09-23;17:10:23;discharging;3.194;49;393
2025-09-23;17:10:25;discharging;3.197;49;393
2025-09-23;17:10:27;discharging;3.197;50;393
2025-09-23;17:10:29;discharging;3.195;50;394
2025-09-23;17:10:31;discharging;3.189;50;394
2025-09-23;17:10:33;discharging;3.193;50;394
2025-09-23;17:10:35;discharging;3.194;49;394
2025-09-23;17:10:37;discharging;3.203;49;395
2025-09-23;17:10:39;discharging;3.192;50;395
2025-09-23;17:10:41;discharging;3.207;50;395
2025-09-23;17:10:43;discharging;3.186;50;395
2025-09-23;17:10:45;discharging;3.186;49;396
2025-09-23;17:10:47;discharging;3.186;49;396
2025-09-23;17:10:49;discharging;3.202;49;396
2025-09-23;17:10:51;discharging;3.203;50;397
2025-09-23;17:10:53;discharging;3.194;50;397
2025-09-23;17:10:55;discharging;3.193;50;397
2025-09-23;17:10:57;discharging;3.192;49;397
2025-09-23;17:10:59;discharging;3.195;49;398
2025-09-23;17:11:01;discharging;3.195;50;398
2025-09-23;17:11:03;discharging;3.193;50;398
2025-09-23;17:11:05;discharging;3.192;50;399
2025-09-23;17:11:07;discharging;3.192;49;399
2025-09-23;17:11:09;discharging;3.193;50;399
2025-09-23;17:11:11;discharging;3.188;50;399
2025-09-23;17:11:13;discharging;3.191;49;400
2025-09-23;17:11:15;discharging;3.198;50;400
2025-09-23;17:11:17;discharging;3.19;50;400
2025-09-23;17:11:19;discharging;3.186;50;401
2025-09-23;17:11:21;discharging;3.19;49;401
2025-09-23;17:11:23;discharging;3.192;49;401
2025-09-23;17:11:25;discharging;3.19;50;401
2025-09-23;17:11:27;discharging;3.188;50;402
2025-09-23;17:11:29;discharging;3.186;49;402
2025-09-23;17:11:31;discharging;3.196;49;402
2025-09-23;17:11:33;discharging;3.202;50;402
2025-09-23;17:11:35;discharging;3.201;50;403
2025-09-23;17:11:37;discharging;3.186;49;403
2025-09-23;17:11:39;discharging;3.192;49;403
2025-09-23;17:11:41;discharging;3.19;50;404
2025-09-23;17:11:43;discharging;3.186;50;404
2025-09-23;17:11:45;discharging;3.186;49;404
2025-09-23;17:11:47;discharging;3.19;49;404
2025-09-23;17:11:49;discharging;3.19;50;405
2025-09-23;17:11:51;discharging;3.2;50;405
2025-09-23;17:11:53;discharging;3.186;50;405
2025-09-23;17:11:55;discharging;3.189;49;406
2025-09-23;17:11:57;discharging;3.19;50;406
2025-09-23;17:11:59;discharging;3.2;50;406
2025-09-23;17:12:01;discharging;3.186;49;406
2025-09-23;17:12:03;discharging;3.191;49;407
2025-09-23;17:12:05;discharging;3.188;50;407
2025-09-23;17:12:07;discharging;3.186;49;407
2025-09-23;17:12:09;discharging;3.19;50;408
2025-09-23;17:12:11;discharging;3.187;50;408
2025-09-23;17:12:13;discharging;3.189;49;408
2025-09-23;17:12:15;discharging;3.183;50;408
2025-09-23;17:12:17;discharging;3.178;50;409
2025-09-23;17:12:19;discharging;3.191;50;409
2025-09-23;17:12:21;discharging;3.18;50;409
2025-09-23;17:12:23;discharging;3.189;49;410
2025-09-23;17:12:25;discharging;3.183;50;410
2025-09-23;17:12:27;discharging;3.178;50;410
2025-09-23;17:12:29;discharging;3.185;50;410
2025-09-23;17:12:31;discharging;3.18;50;411
2025-09-23;17:12:33;discharging;3.183;49;411
2025-09-23;17:12:35;discharging;3.183;50;411
2025-09-23;17:12:37;discharging;3.178;50;411
2025-09-23;17:12:39;discharging;3.184;50;412
2025-09-23;17:12:41;discharging;3.18;50;412
2025-09-23;17:12:43;discharging;3.182;49;412
2025-09-23;17:12:45;discharging;3.182;50;413
2025-09-23;17:12:47;discharging;3.178;50;413
2025-09-23;17:12:49;discharging;3.183;49;413
2025-09-23;17:12:51;discharging;3.181;50;413
2025-09-23;17:12:53;discharging;3.178;50;414
2025-09-23;17:12:55;discharging;3.182;50;414
2025-09-23;17:12:57;discharging;3.181;50;414
2025-09-23;17:12:59;discharging;3.178;49;415
2025-09-23;17:13:01;discharging;3.182;50;415
2025-09-23;17:13:03;discharging;3.18;50;415
2025-09-23;17:13:05;discharging;3.181;49;415
2025-09-23;17:13:07;discharging;3.182;50;416
2025-09-23;17:13:09;discharging;3.179;50;416
2025-09-23;17:13:11;discharging;3.182;49;416
2025-09-23;17:13:13;discharging;3.182;50;417
2025-09-23;17:13:15;discharging;3.179;50;417
2025-09-23;17:13:17;discharging;3.182;49;417
2025-09-23;17:13:19;discharging;3.182;50;417
2025-09-23;17:13:21;discharging;3.178;50;418
2025-09-23;17:13:23;discharging;3.183;49;418
2025-09-23;17:13:25;discharging;3.182;50;418
2025-09-23;17:13:27;discharging;3.178;50;418
2025-09-23;17:13:29;discharging;3.183;49;419
2025-09-23;17:13:31;discharging;3.181;50;419
2025-09-23;17:13:33;discharging;3.178;49;419
2025-09-23;17:13:35;discharging;3.183;49;420
2025-09-23;17:13:37;discharging;3.182;50;420
2025-09-23;17:13:39;discharging;3.178;50;420
2025-09-23;17:13:41;discharging;3.182;49;420
2025-09-23;17:13:43;discharging;3.181;50;421
2025-09-23;17:13:45;discharging;3.179;50;421
2025-09-23;17:13:47;discharging;3.181;49;421
2025-09-23;17:13:49;discharging;3.182;50;422
2025-09-23;17:13:51;discharging;3.18;50;422
2025-09-23;17:13:53;discharging;3.178;49;422
2025-09-23;17:13:55;discharging;3.183;50;422
2025-09-23;17:13:57;discharging;3.189;50;423
2025-09-23;17:13:59;discharging;3.178;50;423
2025-09-23;17:14:01;discharging;3.186;49;423
2025-09-23;17:14:03;discharging;3.189;50;424
2025-09-23;17:14:05;discharging;3.178;50;424
2025-09-23;17:14:07;discharging;3.178;49;424
2025-09-23;17:14:09;discharging;3.18;50;424
2025-09-23;17:14:11;discharging;3.176;50;425
2025-09-23;17:14:13;discharging;3.172;50;425
2025-09-23;17:14:15;discharging;3.176;49;425
2025-09-23;17:14:17;discharging;3.176;50;426
2025-09-23;17:14:19;discharging;3.178;50;426
2025-09-23;17:14:21;discharging;3.176;50;426
2025-09-23;17:14:23;discharging;3.176;49;426
2025-09-23;17:14:25;discharging;3.175;50;427
2025-09-23;17:14:27;discharging;3.174;50;427
2025-09-23;17:14:29;discharging;3.171;50;427
2025-09-23;17:14:31;discharging;3.174;49;427
2025-09-23;17:14:33;discharging;3.175;49;428
2025-09-23;17:14:35;discharging;3.175;50;428
2025-09-23;17:14:37;discharging;3.173;50;428
2025-09-23;17:14:39;discharging;3.172;50;429
2025-09-23;17:14:41;discharging;3.171;49;429
2025-09-23;17:14:43;discharging;3.175;49;429
2025-09-23;17:14:45;discharging;3.175;50;429
2025-09-23;17:14:47;discharging;3.173;50;430
2025-09-23;17:14:49;discharging;3.172;50;430
2025-09-23;17:14:51;discharging;3.171;50;430
2025-09-23;17:14:53;discharging;3.174;49;431
2025-09-23;17:14:55;discharging;3.174;49;431
2025-09-23;17:14:57;discharging;3.175;49;431
2025-09-23;17:14:59;discharging;3.174;50;431
2025-09-23;17:15:01;discharging;3.173;50;432
2025-09-23;17:15:03;discharging;3.172;50;432
2025-09-23;17:15:05;discharging;3.171;50;432
2025-09-23;17:15:07;discharging;3.163;49;433
2025-09-23;17:15:09;discharging;3.163;49;433
2025-09-23;17:15:11;discharging;3.169;49;433
2025-09-23;17:15:13;discharging;3.178;49;433
2025-09-23;17:15:15;discharging;3.168;49;434
2025-09-23;17:15:17;discharging;3.171;49;434
2025-09-23;17:15:19;discharging;3.179;49;434
2025-09-23;17:15:21;discharging;3.179;50;434
2025-09-23;17:15:23;discharging;3.168;50;435
2025-09-23;17:15:25;discharging;3.167;50;435
2025-09-23;17:15:27;discharging;3.167;50;435
2025-09-23;17:15:29;discharging;3.166;50;436
2025-09-23;17:15:31;discharging;3.166;50;436
2025-09-23;17:15:33;discharging;3.165;50;436
2025-09-23;17:15:35;discharging;3.165;50;436
2025-09-23;17:15:37;discharging;3.166;50;437
2025-09-23;17:15:39;discharging;3.165;50;437
2025-09-23;17:15:41;discharging;3.166;49;437
2025-09-23;17:15:43;discharging;3.166;49;438
2025-09-23;17:15:45;discharging;3.166;49;438
2025-09-23;17:15:47;discharging;3.167;49;438
2025-09-23;17:15:49;discharging;3.166;49;438
2025-09-23;17:15:51;discharging;3.165;49;439
2025-09-23;17:15:53;discharging;3.173;49;439
2025-09-23;17:15:55;discharging;3.171;49;439
2025-09-23;17:15:57;discharging;3.155;49;439
2025-09-23;17:15:59;discharging;3.156;50;440
2025-09-23;17:16:01;discharging;3.157;49;440
2025-09-23;17:16:03;discharging;3.156;49;440
2025-09-23;17:16:05;discharging;3.155;50;441
2025-09-23;17:16:07;discharging;3.156;49;441
2025-09-23;17:16:09;discharging;3.155;50;441
2025-09-23;17:16:11;discharging;3.156;49;441
2025-09-23;17:16:13;discharging;3.154;50;442
2025-09-23;17:16:15;discharging;3.152;49;442
2025-09-23;17:16:17;discharging;3.152;49;442
2025-09-23;17:16:19;discharging;3.148;49;443
2025-09-23;17:16:21;discharging;3.149;49;443
2025-09-23;17:16:23;discharging;3.148;49;443
2025-09-23;17:16:25;discharging;3.159;49;443
2025-09-23;17:16:27;discharging;3.148;50;444
2025-09-23;17:16:29;discharging;3.149;49;444
2025-09-23;17:16:31;discharging;3.149;49;444
2025-09-23;17:16:33;discharging;3.148;49;445
2025-09-23;17:16:35;discharging;3.146;49;445
2025-09-23;17:16:37;discharging;3.144;49;445
2025-09-23;17:16:39;discharging;3.144;49;445
2025-09-23;17:16:41;discharging;3.141;49;446
2025-09-23;17:16:43;discharging;3.14;49;446
2025-09-23;17:16:45;discharging;3.147;49;446
2025-09-23;17:16:47;discharging;3.141;49;446
2025-09-23;17:16:49;discharging;3.14;49;447
2025-09-23;17:16:51;discharging;3.14;50;447
2025-09-23;17:16:53;discharging;3.137;49;447
2025-09-23;17:16:55;discharging;3.118;49;448
2025-09-23;17:16:57;discharging;3.101;50;448
2025-09-23;17:16:59;discharging;3.087;49;448
2025-09-23;17:17:01;discharging;3.086;49;448
2025-09-23;17:17:03;discharging;3.084;50;449
2025-09-23;17:17:05;discharging;3.095;49;449
2025-09-23;17:17:07;discharging;3.083;50;449
2025-09-23;17:17:09;discharging;3.099;50;450
2025-09-23;17:17:11;discharging;3.095;50;450
2025-09-23;17:17:13;discharging;3.092;50;450
2025-09-23;17:17:15;discharging;3.089;50;450
2025-09-23;17:17:17;discharging;3.09;50;451
2025-09-23;17:17:19;discharging;3.088;50;451
2025-09-23;17:17:21;discharging;3.085;50;451
2025-09-23;17:17:23;discharging;3.083;49;451
2025-09-23;17:17:25;discharging;3.078;49;452
2025-09-23;17:17:27;discharging;3.086;49;452
2025-09-23;17:17:29;discharging;3.071;50;452
2025-09-23;17:17:31;discharging;3.073;50;453
2025-09-23;17:17:33;discharging;3.089;49;453
2025-09-23;17:17:35;discharging;3.069;49;453
2025-09-23;17:17:37;discharging;3.067;49;453
2025-09-23;17:17:39;discharging;3.068;49;454
2025-09-23;17:17:41;discharging;3.063;49;454
2025-09-23;17:17:43;discharging;3.06;49;454
2025-09-23;17:17:45;discharging;3.083;49;455
2025-09-23;17:17:47;discharging;3.084;50;455
2025-09-23;17:17:49;discharging;3.08;49;455
2025-09-23;17:17:51;discharging;3.063;49;455
2025-09-23;17:17:53;discharging;3.068;50;456
2025-09-23;17:17:55;discharging;3.067;49;456
2025-09-23;17:17:57;discharging;3.063;50;456
2025-09-23;17:17:59;discharging;3.082;49;457
2025-09-23;17:18:01;discharging;3.063;49;457
2025-09-23;17:18:03;discharging;3.063;49;457
2025-09-23;17:18:05;discharging;3.065;49;457
2025-09-23;17:18:07;discharging;3.072;49;458
2025-09-23;17:18:09;discharging;3.062;49;458
2025-09-23;17:18:11;discharging;3.063;49;458
2025-09-23;17:18:13;discharging;3.064;49;458
2025-09-23;17:18:15;discharging;3.07;50;459
2025-09-23;17:18:17;discharging;3.055;49;459
2025-09-23;17:18:19;discharging;3.062;49;459
2025-09-23;17:18:21;discharging;3.058;49;460
2025-09-23;17:18:23;discharging;3.055;49;460
2025-09-23;17:18:25;discharging;3.063;49;460
2025-09-23;17:18:27;discharging;3.065;50;460
2025-09-23;17:18:29;discharging;3.066;49;461
2025-09-23;17:18:31;discharging;3.078;50;461
2025-09-23;17:18:33;discharging;3.057;49;461
2025-09-23;17:18:35;discharging;3.06;49;462
2025-09-23;17:18:37;discharging;3.063;49;462
2025-09-23;17:18:39;discharging;3.063;50;462
2025-09-23;17:18:41;discharging;3.059;49;462
2025-09-23;17:18:43;discharging;3.062;50;463
2025-09-23;17:18:45;discharging;3.063;49;463
2025-09-23;17:18:47;discharging;3.064;50;463
2025-09-23;17:18:49;discharging;3.068;50;463
2025-09-23;17:18:51;discharging;3.068;50;464
2025-09-23;17:18:53;discharging;3.078;49;464
2025-09-23;17:18:55;discharging;3.088;50;464
2025-09-23;17:18:57;discharging;3.071;49;465
2025-09-23;17:18:59;discharging;3.067;49;465
2025-09-23;17:19:01;discharging;3.07;49;465
2025-09-23;17:19:03;discharging;3.068;49;465
2025-09-23;17:19:05;discharging;3.068;50;466
2025-09-23;17:19:07;discharging;3.079;50;466
2025-09-23;17:19:09;discharging;3.068;50;466
2025-09-23;17:19:11;discharging;3.067;50;467
2025-09-23;17:19:13;discharging;3.066;50;467
2025-09-23;17:19:15;discharging;3.094;50;467
2025-09-23;17:19:17;discharging;3.065;50;467
2025-09-23;17:19:19;discharging;3.068;49;468
2025-09-23;17:19:21;discharging;3.072;49;468
2025-09-23;17:19:23;discharging;3.068;50;468
2025-09-23;17:19:25;discharging;3.066;50;469
2025-09-23;17:19:27;discharging;3.068;50;469
2025-09-23;17:19:29;discharging;3.063;49;469
2025-09-23;17:19:31;discharging;3.062;49;469
2025-09-23;17:19:33;discharging;3.07;49;470
2025-09-23;17:19:35;discharging;3.062;49;470
2025-09-23;17:19:37;discharging;2.993;49;470
2025-09-23;17:19:39;rest;3.757;0;470
2025-09-23;17:19:41;rest;3.761;0;470