File: monitor_Icharger/1rest_1000_13.csv
date;system_hour;cycle_time;battery_state;voltage[V];current[mA];capacity[mAh]
2025-09-23;14:47:28;5:46:08;rest;4.121;0.0;747
2025-09-23;14:47:30;0:00:02;rest;4.122;0.0;747
2025-09-23;14:47:32;0:00:04;rest;4.12;0.0;747
2025-09-23;14:47:34;0:00:06;rest;4.12;0.0;747
2025-09-23;14:47:36;0:00:08;rest;4.124;0.0;747
2025-09-23;14:47:38;0:00:10;rest;4.12;0.0;747
2025-09-23;14:47:40;0:00:12;rest;4.12;0.0;747
2025-09-23;14:47:42;0:00:14;rest;4.12;0.0;747
2025-09-23;14:47:44;0:00:16;rest;4.12;0.0;747
2025-09-23;14:47:46;0:00:18;rest;4.12;0.0;747
2025-09-23;14:47:48;0:00:20;rest;4.12;0.0;747
2025-09-23;14:47:50;0:00:22;rest;4.12;0.0;747
2025-09-23;14:47:52;0:00:24;rest;4.12;0.0;747
2025-09-23;14:47:54;0:00:26;rest;4.124;0.0;747
2025-09-23;14:47:56;0:00:28;rest;4.12;0.0;747
2025-09-23;14:47:58;0:00:30;rest;4.12;0.0;747
2025-09-23;14:48:00;0:00:32;rest;4.12;0.0;747
2025-09-23;14:48:02;0:00:34;rest;4.12;0.0;747
2025-09-23;14:48:04;0:00:36;rest;4.12;0.0;747
2025-09-23;14:48:06;0:00:38;rest;4.12;0.0;747
2025-09-23;14:48:08;0:00:40;rest;4.125;0.0;747
2025-09-23;14:48:10;0:00:42;rest;4.12;0.0;747
2025-09-23;14:48:12;0:00:44;rest;4.12;0.0;747
2025-09-23;14:48:14;0:00:46;rest;4.12;0.0;747
2025-09-23;14:48:16;0:00:48;rest;4.12;0.0;747
2025-09-23;14:48:18;0:00:50;rest;4.12;0.0;747
2025-09-23;14:48:20;0:00:52;rest;4.12;0.0;747
2025-09-23;14:48:22;0:00:54;rest;4.12;0.0;747
2025-09-23;14:48:24;0:00:56;rest;4.12;0.0;747
2025-09-23;14:48:26;0:00:58;rest;4.127;0.0;747
2025-09-23;14:48:28;0:01:00;rest;4.12;0.0;747
2025-09-23;14:48:30;0:01:02;rest;4.12;0.0;747
2025-09-23;14:48:32;0:01:04;rest;4.12;0.0;747
2025-09-23;14:48:34;0:01:06;rest;4.125;0.0;747
2025-09-23;14:48:36;0:01:08;rest;4.12;0.0;747
2025-09-23;14:48:38;0:01:10;rest;4.12;0.0;747
2025-09-23;14:48:40;0:01:12;rest;4.12;0.0;747
2025-09-23;14:48:42;0:01:14;rest;4.12;0.0;747
2025-09-23;14:48:44;0:01:16;rest;4.12;0.0;747
2025-09-23;14:48:46;0:01:18;rest;4.12;0.0;747
2025-09-23;14:48:48;0:01:20;rest;4.12;0.0;747
2025-09-23;14:48:50;0:01:22;rest;4.12;0.0;747
2025-09-23;14:48:52;0:01:24;rest;4.12;0.0;747
2025-09-23;14:48:54;0:01:26;rest;4.12;0.0;747
2025-09-23;14:48:56;0:01:28;rest;4.12;0.0;747
2025-09-23;14:48:58;0:01:30;rest;4.12;0.0;747
2025-09-23;14:49:00;0:01:32;rest;4.12;0.0;747
2025-09-23;14:49:02;0:01:34;rest;4.12;0.0;747
2025-09-23;14:49:04;0:01:36;rest;4.12;0.0;747
2025-09-23;14:49:06;0:01:38;rest;4.12;0.0;747
2025-09-23;14:49:08;0:01:40;rest;4.12;0.0;747
2025-09-23;14:49:10;0:01:42;rest;4.12;0.0;747
2025-09-23;14:49:12;0:01:44;rest;4.12;0.0;747
2025-09-23;14:49:14;0:01:46;rest;4.12;0.0;747
2025-09-23;14:49:16;0:01:48;rest;4.12;0.0;747
2025-09-23;14:49:18;0:01:50;rest;4.12;0.0;747
2025-09-23;14:49:20;0:01:52;rest;4.12;0.0;747
2025-09-23;14:49:22;0:01:54;rest;4.12;0.0;747
2025-09-23;14:49:24;0:01:56;rest;4.12;0.0;747
2025-09-23;14:49:26;0:01:58;rest;4.12;0.0;747
2025-09-23;14:49:28;0:02:00;rest;4.12;0.0;747
2025-09-23;14:49:30;0:02:02;rest;4.12;0.0;747
2025-09-23;14:49:32;0:02:04;rest;4.12;0.0;747
2025-09-23;14:49:34;0:02:06;rest;4.12;0.0;747
2025-09-23;14:49:36;0:02:08;rest;4.12;0.0;747
2025-09-23;14:49:38;0:02:10;rest;4.12;0.0;747
2025-09-23;14:49:40;0:02:12;rest;4.12;0.0;747
2025-09-23;14:49:42;0:02:14;rest;4.12;0.0;747
2025-09-23;14:49:44;0:02:16;rest;4.12;0.0;747
2025-09-23;14:49:46;0:02:18;rest;4.12;0.0;747
2025-09-23;14:49:48;0:02:20;rest;4.12;0.0;747
2025-09-23;14:49:50;0:02:22;rest;4.12;0.0;747
2025-09-23;14:49:52;0:02:24;rest;4.12;0.0;747
2025-09-23;14:49:54;0:02:26;rest;4.12;0.0;747
2025-09-23;14:49:56;0:02:28;rest;4.12;0.0;747
2025-09-23;14:49:58;0:02:30;rest;4.12;0.0;747
2025-09-23;14:50:00;0:02:32;rest;4.12;0.0;747
2025-09-23;14:50:02;0:02:34;rest;4.12;0.0;747
2025-09-23;14:50:04;0:02:36;rest;4.12;0.0;747
2025-09-23;14:50:06;0:02:38;rest;4.12;0.0;747
2025-09-23;14:50:08;0:02:40;rest;4.12;0.0;747
2025-09-23;14:50:10;0:02:42;rest;4.12;0.0;747
2025-09-23;14:50:12;0:02:44;rest;4.12;0.0;747
2025-09-23;14:50:14;0:02:46;rest;4.12;0.0;747
2025-09-23;14:50:16;0:02:48;rest;4.12;0.0;747
2025-09-23;14:50:18;0:02:50;rest;4.12;0.0;747
2025-09-23;14:50:20;0:02:52;rest;4.12;0.0;747
2025-09-23;14:50:22;0:02:54;rest;4.12;0.0;747
2025-09-23;14:50:24;0:02:56;rest;4.12;0.0;747
2025-09-23;14:50:26;0:02:58;rest;4.12;0.0;747
2025-09-23;14:50:28;0:03:00;rest;4.12;0.0;747
2025-09-23;14:50:30;0:03:02;rest;4.12;0.0;747
2025-09-23;14:50:32;0:03:04;rest;4.12;0.0;747
2025-09-23;14:50:34;0:03:06;rest;4.12;0.0;747
2025-09-23;14:50:36;0:03:08;rest;4.12;0.0;747
2025-09-23;14:50:38;0:03:10;rest;4.12;0.0;747
2025-09-23;14:50:40;0:03:12;rest;4.12;0.0;747
2025-09-23;14:50:42;0:03:14;rest;4.12;0.0;747
2025-09-23;14:50:44;0:03:16;rest;4.12;0.0;747
2025-09-23;14:50:46;0:03:18;rest;4.12;0.0;747
2025-09-23;14:50:48;0:03:20;rest;4.12;0.0;747
2025-09-23;14:50:50;0:03:22;rest;4.12;0.0;747
2025-09-23;14:50:52;0:03:24;rest;4.12;0.0;747
2025-09-23;14:50:54;0:03:26;rest;4.12;0.0;747
2025-09-23;14:50:56;0:03:28;rest;4.12;0.0;747
2025-09-23;14:50:58;0:03:30;rest;4.12;0.0;747
2025-09-23;14:51:00;0:03:32;rest;4.12;0.0;747
2025-09-23;14:51:02;0:03:34;rest;4.12;0.0;747
2025-09-23;14:51:04;0:03:36;rest;4.12;0.0;747
2025-09-23;14:51:06;0:03:38;rest;4.12;0.0;747
2025-09-23;14:51:08;0:03:40;rest;4.12;0.0;747
2025-09-23;14:51:10;0:03:42;rest;4.12;0.0;747
2025-09-23;14:51:12;0:03:44;rest;4.12;0.0;747
2025-09-23;14:51:14;0:03:46;rest;4.12;0.0;747
2025-09-23;14:51:16;0:03:48;rest;4.12;0.0;747
2025-09-23;14:51:18;0:03:50;rest;4.12;0.0;747
2025-09-23;14:51:20;0:03:52;rest;4.12;0.0;747
2025-09-23;14:51:22;0:03:54;rest;4.12;0.0;747
2025-09-23;14:51:24;0:03:56;rest;4.12;0.0;747
2025-09-23;14:51:26;0:03:58;rest;4.12;0.0;747
2025-09-23;14:51:28;0:04:00;rest;4.12;0.0;747
2025-09-23;14:51:30;0:04:02;rest;4.12;0.0;747
2025-09-23;14:51:32;0:04:04;rest;4.12;0.0;747
2025-09-23;14:51:34;0:04:06;rest;4.12;0.0;747
2025-09-23;14:51:36;0:04:08;rest;4.12;0.0;747
2025-09-23;14:51:38;0:04:10;rest;4.12;0.0;747
2025-09-23;14:51:40;0:04:12;rest;4.12;0.0;747
2025-09-23;14:51:42;0:04:14;rest;4.12;0.0;747
2025-09-23;14:51:44;0:04:16;rest;4.12;0.0;747
2025-09-23;14:51:46;0:04:18;rest;4.12;0.0;747
2025-09-23;14:51:48;0:04:20;rest;4.12;0.0;747
2025-09-23;14:51:50;0:04:22;rest;4.12;0.0;747
2025-09-23;14:51:52;0:04:24;rest;4.12;0.0;747
2025-09-23;14:51:54;0:04:26;rest;4.12;0.0;747
2025-09-23;14:51:56;0:04:28;rest;4.12;0.0;747
2025-09-23;14:51:58;0:04:30;rest;4.12;0.0;747
2025-09-23;14:52:00;0:04:32;rest;4.12;0.0;747
2025-09-23;14:52:02;0:04:34;rest;4.12;0.0;747
2025-09-23;14:52:04;0:04:36;rest;4.12;0.0;747
2025-09-23;14:52:06;0:04:38;rest;4.12;0.0;747
2025-09-23;14:52:08;0:04:40;rest;4.12;0.0;747
2025-09-23;14:52:10;0:04:42;rest;4.12;0.0;747
2025-09-23;14:52:12;0:04:44;rest;4.12;0.0;747
2025-09-23;14:52:14;0:04:46;rest;4.12;0.0;747
2025-09-23;14:52:16;0:04:48;rest;4.12;0.0;747
2025-09-23;14:52:18;0:04:50;rest;4.12;0.0;747
2025-09-23;14:52:20;0:04:52;rest;4.12;0.0;747
2025-09-23;14:52:22;0:04:54;rest;4.12;0.0;747
2025-09-23;14:52:24;0:04:56;rest;4.12;0.04;0
2025-09-23;14:52:26;0:04:58;discharging;3.896;0.16;0
2025-09-23;14:52:28;0:05:00;discharging;3.456;0.37;0
2025-09-23;15:49:44;0:57:14;rest;3.919;0.0;480
2025-09-23;15:49:46;0:57:16;rest;3.924;0.0;480
2025-09-23;15:49:48;0:57:18;rest;3.923;0.0;480
2025-09-23;15:49:50;0:57:20;rest;3.922;0.0;480
2025-09-23;15:49:52;0:57:22;rest;3.92;0.0;480
2025-09-23;15:49:54;0:57:24;rest;3.927;0.0;480
2025-09-23;15:49:56;0:57:26;rest;3.926;0.0;480
2025-09-23;15:49:58;0:57:28;rest;3.927;0.0;480
2025-09-23;15:50:00;0:57:30;rest;3.927;0.0;480
2025-09-23;15:50:01;0:57:31;rest;3.927;0.0;480
2025-09-23;15:50:03;0:57:33;rest;3.927;0.0;480
2025-09-23;15:50:05;0:57:35;rest;3.927;0.0;480
2025-09-23;15:50:07;0:57:37;rest;3.927;0.0;480
2025-09-23;15:50:09;0:57:39;rest;3.927;0.0;480
2025-09-23;15:50:11;0:57:41;rest;3.927;0.0;480
2025-09-23;15:50:13;0:57:43;rest;3.927;0.0;480
2025-09-23;15:50:16;0:57:46;rest;3.927;0.0;480
2025-09-23;15:50:18;0:57:48;rest;3.927;0.0;480
2025-09-23;15:50:19;0:57:49;rest;3.927;0.0;480
2025-09-23;15:50:21;0:57:51;rest;3.927;0.0;480
2025-09-23;15:50:23;0:57:53;rest;3.927;0.0;480
2025-09-23;15:50:25;0:57:55;rest;3.927;0.0;480
2025-09-23;15:50:27;0:57:57;rest;3.927;0.0;480
2025-09-23;15:50:29;0:57:59;rest;3.927;0.0;480
2025-09-23;15:50:31;0:58:01;rest;3.927;0.0;480
2025-09-23;15:50:33;0:58:03;rest;3.927;0.0;480
2025-09-23;15:50:36;0:58:06;rest;3.927;0.0;480
2025-09-23;15:50:38;0:58:08;rest;3.927;0.0;480
2025-09-23;15:50:40;0:58:10;rest;3.927;0.0;480
2025-09-23;15:50:41;0:58:11;rest;3.927;0.0;480
2025-09-23;15:50:43;0:58:13;rest;3.927;0.0;480
2025-09-23;15:50:45;0:58:15;rest;3.927;0.0;480
2025-09-23;15:50:47;0:58:17;rest;3.927;0.0;480
2025-09-23;15:50:49;0:58:19;rest;3.935;0.0;480
2025-09-23;15:50:51;0:58:21;rest;3.927;0.0;480
2025-09-23;15:50:53;0:58:23;rest;3.927;0.0;480
2025-09-23;15:50:55;0:58:25;rest;3.927;0.0;480
2025-09-23;15:50:57;0:58:27;rest;3.927;0.0;480
2025-09-23;15:50:59;0:58:29;rest;3.927;0.0;480
2025-09-23;15:51:01;0:58:31;rest;3.927;0.0;480
2025-09-23;15:51:03;0:58:33;rest;3.927;0.0;480
2025-09-23;15:51:05;0:58:35;rest;3.927;0.0;480
2025-09-23;15:51:07;0:58:37;rest;3.927;0.0;480
2025-09-23;15:51:09;0:58:39;rest;3.933;0.0;480
2025-09-23;15:51:11;0:58:41;rest;3.934;0.0;480
2025-09-23;15:51:13;0:58:43;rest;3.934;0.0;480
2025-09-23;15:51:15;0:58:45;rest;3.927;0.0;480
2025-09-23;15:51:17;0:58:47;rest;3.927;0.0;480
2025-09-23;15:51:19;0:58:49;rest;3.927;0.0;480
2025-09-23;15:51:21;0:58:51;rest;3.927;0.0;480
2025-09-23;15:51:24;0:58:54;rest;3.927;0.0;480
2025-09-23;15:51:26;0:58:56;rest;3.927;0.0;480
2025-09-23;15:51:27;0:58:57;rest;3.927;0.0;480
2025-09-23;15:51:29;0:58:59;rest;3.927;0.0;480
2025-09-23;15:51:31;0:59:01;rest;3.927;0.0;480
2025-09-23;15:51:33;0:59:03;rest;3.927;0.0;480
2025-09-23;15:51:35;0:59:05;rest;3.934;0.0;480
2025-09-23;15:51:37;0:59:07;rest;3.931;0.0;480
2025-09-23;15:51:39;0:59:09;rest;3.929;0.0;480
2025-09-23;15:51:41;0:59:11;rest;3.927;0.0;480
2025-09-23;15:51:43;0:59:13;rest;3.927;0.0;480
2025-09-23;15:51:45;0:59:15;rest;3.927;0.0;480
2025-09-23;15:51:47;0:59:17;rest;3.928;0.0;480
2025-09-23;15:51:49;0:59:19;rest;3.929;0.0;480
2025-09-23;15:51:51;0:59:21;rest;3.929;0.0;480
2025-09-23;15:51:53;0:59:23;rest;3.929;0.0;480
2025-09-23;15:51:55;0:59:25;rest;3.929;0.0;480
2025-09-23;15:51:57;0:59:27;rest;3.928;0.0;480
2025-09-23;15:51:59;0:59:29;rest;3.927;0.0;480
2025-09-23;15:52:01;0:59:31;rest;3.929;0.0;480
2025-09-23;15:52:03;0:59:33;rest;3.932;0.0;480
2025-09-23;15:52:06;0:59:36;rest;3.93;0.0;480
2025-09-23;15:52:07;0:59:37;rest;3.93;0.0;480
2025-09-23;15:52:09;0:59:39;rest;3.929;0.0;480
2025-09-23;15:52:11;0:59:41;rest;3.927;0.0;480
2025-09-23;15:52:13;0:59:43;rest;3.929;0.0;480
2025-09-23;15:52:15;0:59:45;rest;3.929;0.0;480
2025-09-23;15:52:18;0:59:48;rest;3.93;0.0;480
2025-09-23;15:52:20;0:59:50;rest;3.935;0.0;480
2025-09-23;15:52:22;0:59:52;rest;3.931;0.0;480
2025-09-23;15:52:24;0:59:54;rest;3.931;0.0;480
2025-09-23;15:52:25;0:59:55;rest;3.932;0.0;480
2025-09-23;15:52:27;0:59:57;rest;3.933;0.0;480
2025-09-23;15:52:29;0:59:59;rest;3.932;0.0;480
2025-09-23;15:52:31;1:00:01;rest;3.934;0.0;480
2025-09-23;15:52:33;1:00:03;rest;3.931;0.0;480
2025-09-23;15:52:35;1:00:05;rest;3.934;0.0;480
2025-09-23;15:52:37;1:00:07;rest;3.931;0.0;480
2025-09-23;15:52:39;1:00:09;rest;3.934;0.0;480
2025-09-23;15:52:41;1:00:11;rest;3.932;0.0;480
2025-09-23;15:52:43;1:00:13;rest;3.934;0.0;480
2025-09-23;15:52:46;1:00:16;rest;3.935;0.0;480
2025-09-23;15:52:47;1:00:17;rest;3.929;0.0;480
2025-09-23;15:52:49;1:00:19;rest;3.929;0.0;480
2025-09-23;15:52:51;1:00:21;rest;3.932;0.0;480
2025-09-23;15:52:53;1:00:23;rest;3.932;0.0;480
2025-09-23;15:52:55;1:00:25;rest;3.931;0.0;480
2025-09-23;15:52:57;1:00:27;rest;3.931;0.0;480
2025-09-23;15:52:59;1:00:29;rest;3.934;0.0;480
2025-09-23;15:53:01;1:00:31;rest;3.932;0.0;480
2025-09-23;15:53:03;1:00:33;rest;3.935;0.0;480
2025-09-23;15:53:05;1:00:35;rest;3.935;0.0;480
2025-09-23;15:53:07;1:00:37;rest;3.932;0.0;480
2025-09-23;15:53:09;1:00:39;rest;3.934;0.0;480
2025-09-23;15:53:11;1:00:41;rest;3.932;0.0;480
2025-09-23;15:53:13;1:00:43;rest;3.934;0.0;480
2025-09-23;15:53:15;1:00:45;rest;3.932;0.0;480
2025-09-23;15:53:17;1:00:47;rest;3.931;0.0;480
2025-09-23;15:53:19;1:00:49;rest;3.935;0.0;480
2025-09-23;15:53:22;1:00:52;rest;3.932;0.0;480
2025-09-23;15:53:24;1:00:54;rest;3.934;0.0;480
2025-09-23;15:53:26;1:00:56;rest;3.935;0.0;480
2025-09-23;15:53:28;1:00:58;rest;3.934;0.0;480
2025-09-23;15:53:29;1:00:59;rest;3.933;0.0;480
2025-09-23;15:53:31;1:01:01;rest;3.935;0.0;480
2025-09-23;15:53:33;1:01:03;rest;3.933;0.0;480
2025-09-23;15:53:35;1:01:05;rest;3.932;0.0;480
2025-09-23;15:53:37;1:01:07;rest;3.934;0.0;480
2025-09-23;15:53:39;1:01:09;rest;3.935;0.0;480
2025-09-23;15:53:41;1:01:11;rest;3.932;0.0;480
2025-09-23;15:53:43;1:01:13;rest;3.932;0.0;480
2025-09-23;15:53:45;1:01:15;rest;3.934;0.0;480
2025-09-23;15:53:47;1:01:17;rest;3.932;0.0;480
2025-09-23;15:53:49;1:01:19;rest;3.934;0.0;480
2025-09-23;15:53:51;1:01:21;rest;3.934;0.0;480
2025-09-23;15:53:53;1:01:23;rest;3.935;0.0;480
2025-09-23;15:53:55;1:01:25;rest;3.934;0.0;480
2025-09-23;15:53:57;1:01:27;rest;3.934;0.0;480
2025-09-23;15:54:00;1:01:30;rest;3.935;0.0;480
2025-09-23;15:54:01;1:01:31;rest;3.935;0.0;480
2025-09-23;15:54:03;1:01:33;rest;3.934;0.0;480
2025-09-23;15:54:05;1:01:35;rest;3.935;0.0;480
2025-09-23;15:54:07;1:01:37;rest;3.935;0.0;480
2025-09-23;15:54:09;1:01:39;rest;3.935;0.0;480
2025-09-23;15:54:12;1:01:42;rest;3.935;0.0;480
2025-09-23;15:54:13;1:01:43;rest;3.934;0.0;480
2025-09-23;15:54:15;1:01:45;rest;3.935;0.0;480
2025-09-23;15:54:17;1:01:47;rest;3.935;0.0;480
2025-09-23;15:54:19;1:01:49;rest;3.935;0.0;480
2025-09-23;15:54:21;1:01:51;rest;3.935;0.0;480
2025-09-23;15:54:23;1:01:53;rest;3.933;0.0;480
2025-09-23;15:54:25;1:01:55;rest;3.935;0.0;480
2025-09-23;15:54:27;1:01:57;rest;3.935;0.0;480
2025-09-23;15:54:29;1:01:59;rest;3.934;0.0;480
2025-09-23;15:54:31;1:02:01;rest;3.934;0.0;480
2025-09-23;15:54:33;1:02:03;rest;3.934;0.0;480
2025-09-23;15:54:35;1:02:05;rest;3.933;0.0;480
2025-09-23;15:54:37;1:02:07;rest;3.934;0.0;480
2025-09-23;15:54:42;1:02:12;rest;3.935;0.01;0
2025-09-23;15:54:44;1:02:14;charging;4.135;0.04;0
2025-09-23;15:54:46;1:02:16;charging;4.197;0.06;0