File: monitor_Icharger/data_original_1_1000_1.csv
date;time;battery_state;voltage[V];current[mA];capacity[mAh]
2025-09-23;08:51:02;charging;4.19;7;6
2025-09-23;08:51:04;rest;4.138;0;6
2025-09-23;08:51:06;rest;3.865;0;6
2025-09-23;08:51:08;rest;3.865;0;6
2025-09-23;08:51:10;rest;3.865;0;6
2025-09-23;08:51:12;rest;3.865;0;6
2025-09-23;08:51:14;rest;3.864;0;6
2025-09-23;08:51:16;rest;3.864;0;6
2025-09-23;08:51:18;rest;3.863;0;6
2025-09-23;08:51:20;rest;3.865;0;6
2025-09-23;08:51:22;rest;3.865;0;6
2025-09-23;08:51:24;rest;3.863;0;6
2025-09-23;08:51:26;rest;3.864;0;6
2025-09-23;08:51:28;rest;3.861;0;6
2025-09-23;08:51:30;rest;3.863;0;6
2025-09-23;08:51:32;rest;3.861;0;6
2025-09-23;08:51:34;rest;3.861;0;6
2025-09-23;08:51:36;rest;3.861;0;6
2025-09-23;08:51:38;rest;3.863;0;6
2025-09-23;08:51:40;rest;3.861;0;6
2025-09-23;08:51:42;rest;3.859;0;6
2025-09-23;08:51:44;rest;3.859;0;6
2025-09-23;08:51:46;rest;3.857;0;6
2025-09-23;08:51:48;rest;3.859;0;6
2025-09-23;08:51:50;rest;3.86;0;6
2025-09-23;08:51:52;rest;3.857;0;6
2025-09-23;08:51:54;rest;3.858;0;6
2025-09-23;08:51:56;rest;3.857;0;6
2025-09-23;08:51:58;rest;3.857;0;6
2025-09-23;08:52:00;rest;3.863;0;6
2025-09-23;08:52:02;rest;3.857;0;6
2025-09-23;08:52:04;rest;3.857;0;6
2025-09-23;08:52:06;rest;3.858;0;6
2025-09-23;08:52:08;rest;3.857;0;6
2025-09-23;08:52:10;rest;3.858;0;6
2025-09-23;08:52:12;rest;3.863;0;6
2025-09-23;08:52:14;rest;3.857;0;6
2025-09-23;08:52:16;rest;3.857;0;6
2025-09-23;08:52:18;rest;3.857;0;6
2025-09-23;08:52:20;rest;3.857;0;6
2025-09-23;08:52:22;rest;3.857;0;6
2025-09-23;08:52:24;rest;3.857;0;6
2025-09-23;08:52:26;rest;3.857;0;6
2025-09-23;08:52:28;rest;3.857;0;6
2025-09-23;08:52:30;rest;3.865;0;6
2025-09-23;08:52:32;rest;3.863;0;6
2025-09-23;08:52:34;rest;3.862;0;6
2025-09-23;08:52:36;rest;3.863;0;6
2025-09-23;08:52:38;rest;3.857;0;6
2025-09-23;08:52:40;rest;3.857;0;6
2025-09-23;08:52:42;rest;3.861;0;6
2025-09-23;08:52:44;rest;3.857;0;6
2025-09-23;08:52:46;rest;3.857;0;6
2025-09-23;08:52:48;rest;3.857;0;6
2025-09-23;08:52:50;rest;3.857;0;6
2025-09-23;08:52:52;rest;3.857;0;6
2025-09-23;08:52:54;rest;3.857;0;6
2025-09-23;08:52:56;rest;3.857;0;6
2025-09-23;08:52:58;rest;3.857;0;6
2025-09-23;08:53:00;rest;3.857;0;6
2025-09-23;08:53:02;rest;3.857;0;6
2025-09-23;08:53:04;rest;3.863;0;6
2025-09-23;08:53:06;rest;3.857;0;6
2025-09-23;08:53:08;rest;3.857;0;6
2025-09-23;08:53:10;rest;3.857;0;6
2025-09-23;08:53:12;rest;3.857;0;6
2025-09-23;08:53:14;rest;3.857;0;6
2025-09-23;08:53:16;rest;3.857;0;6
2025-09-23;08:53:18;rest;3.857;0;6
2025-09-23;08:53:20;rest;3.857;0;6
2025-09-23;08:53:22;rest;3.857;0;6
2025-09-23;08:53:24;rest;3.857;0;6
2025-09-23;08:53:26;rest;3.857;0;6
2025-09-23;08:53:28;rest;3.857;0;6
2025-09-23;08:53:30;rest;3.864;0;6
2025-09-23;08:53:32;rest;3.857;0;6
2025-09-23;08:53:34;rest;3.857;0;6
2025-09-23;08:53:36;rest;3.863;0;6
2025-09-23;08:53:38;rest;3.864;0;6
2025-09-23;08:53:40;rest;3.857;0;6
2025-09-23;08:53:42;rest;3.857;0;6
2025-09-23;08:53:44;rest;3.857;0;6
2025-09-23;08:53:46;rest;3.864;0;6
2025-09-23;08:53:48;rest;3.857;0;6
2025-09-23;08:53:50;rest;3.857;0;6
2025-09-23;08:53:52;rest;3.857;0;6
2025-09-23;08:53:54;rest;3.857;0;6
2025-09-23;08:53:56;rest;3.863;0;6
2025-09-23;08:53:58;rest;3.857;0;6
2025-09-23;08:54:00;rest;3.863;0;6
2025-09-23;08:54:02;rest;3.857;0;6
2025-09-23;08:54:04;rest;3.857;0;6
2025-09-23;08:54:06;rest;3.857;0;6
2025-09-23;08:54:08;rest;3.857;0;6
2025-09-23;08:54:10;rest;3.857;0;6
2025-09-23;08:54:12;rest;3.857;0;6
2025-09-23;08:54:14;rest;3.857;0;6
2025-09-23;08:54:16;rest;3.857;0;6
2025-09-23;08:54:18;rest;3.857;0;6
2025-09-23;08:54:20;rest;3.857;0;6
2025-09-23;08:54:22;rest;3.857;0;6
2025-09-23;08:54:24;rest;3.857;0;6
2025-09-23;08:54:26;rest;3.857;0;6
2025-09-23;08:54:28;rest;3.857;0;6
2025-09-23;08:54:30;rest;3.857;0;6
2025-09-23;08:54:32;rest;3.857;0;6
2025-09-23;08:54:34;rest;3.857;0;6
2025-09-23;08:54:36;rest;3.857;0;6
2025-09-23;08:54:38;rest;3.857;0;6
2025-09-23;08:54:40;rest;3.857;0;6
2025-09-23;08:54:42;rest;3.857;0;6
2025-09-23;08:54:44;rest;3.857;0;6
2025-09-23;08:54:46;rest;3.857;0;6
2025-09-23;08:54:48;rest;3.857;0;6
2025-09-23;08:54:50;rest;3.857;0;6
2025-09-23;08:54:52;rest;3.857;0;6
2025-09-23;08:54:54;rest;3.857;0;6
2025-09-23;08:54:56;rest;3.857;0;6
2025-09-23;08:54:58;rest;3.863;0;6
2025-09-23;08:55:00;rest;3.857;0;6
2025-09-23;08:55:02;rest;3.857;0;6
2025-09-23;08:55:04;rest;3.857;0;6
2025-09-23;08:55:06;rest;3.857;0;6
2025-09-23;08:55:08;rest;3.857;0;6
2025-09-23;08:55:10;rest;3.857;0;6
2025-09-23;08:55:12;rest;3.857;0;6
2025-09-23;08:55:14;rest;3.857;0;6
2025-09-23;08:55:16;rest;3.857;0;6
2025-09-23;08:55:18;rest;3.857;0;6
2025-09-23;08:55:20;rest;3.857;0;6
2025-09-23;08:55:22;rest;3.857;0;6
2025-09-23;08:55:24;rest;3.857;0;6
2025-09-23;08:55:26;rest;3.857;0;6
2025-09-23;08:55:28;rest;3.865;0;6
2025-09-23;08:55:30;rest;3.857;0;6
2025-09-23;08:55:32;rest;3.857;0;6
2025-09-23;08:55:34;rest;3.857;0;6
2025-09-23;08:55:36;rest;3.857;0;6
2025-09-23;08:55:38;rest;3.857;0;6
2025-09-23;08:55:40;rest;3.857;0;6
2025-09-23;08:55:42;rest;3.865;0;6
2025-09-23;08:55:44;rest;3.857;0;6
2025-09-23;08:55:46;rest;3.857;0;6
2025-09-23;08:55:48;rest;3.857;0;6
2025-09-23;08:55:50;rest;3.857;0;6
2025-09-23;08:55:52;rest;3.857;0;6
2025-09-23;08:55:54;rest;3.857;0;6
2025-09-23;08:55:56;rest;3.857;0;6
2025-09-23;08:55:58;rest;3.857;0;6
2025-09-23;08:56:00;rest;3.857;0;6
2025-09-23;08:56:02;rest;3.857;0;6
2025-09-23;08:56:04;rest;3.857;4;0
2025-09-23;08:56:06;discharging;3.533;15;0
2025-09-23;08:56:08;discharging;3.308;35;0
2025-09-23;08:56:10;rest;3.003;0;0
2025-09-23;08:56:28;rest;3.857;0;0
2025-09-23;08:56:46;rest;3.857;0;0
2025-09-23;08:57:04;rest;3.857;0;0
2025-09-23;08:57:22;rest;3.857;0;0
2025-09-23;08:57:40;rest;3.857;0;0
2025-09-23;08:57:58;rest;3.857;0;0
2025-09-23;08:58:16;rest;3.857;0;0
2025-09-23;08:58:34;rest;3.857;0;0
2025-09-23;08:58:52;rest;3.857;0;0
2025-09-23;08:59:10;rest;3.857;0;0
2025-09-23;08:59:28;rest;3.857;0;0
2025-09-23;08:59:46;rest;3.857;0;0
2025-09-23;09:00:04;rest;3.857;0;0
2025-09-23;09:00:22;rest;3.857;0;0
2025-09-23;09:00:40;rest;3.857;0;0
2025-09-23;09:00:58;rest;3.857;0;0
2025-09-23;09:01:18;charging;4.197;24;0
2025-09-23;09:01:36;charging;4.197;24;1
2025-09-23;09:01:54;charging;4.197;23;2
2025-09-23;09:02:12;charging;4.197;23;3
2025-09-23;09:02:30;charging;4.197;23;4
2025-09-23;09:02:48;charging;4.197;23;6
2025-09-23;09:03:06;charging;4.197;23;7
2025-09-23;09:03:24;charging;4.197;23;8
2025-09-23;09:03:42;charging;4.197;23;9
2025-09-23;09:04:00;charging;4.197;23;10
2025-09-23;09:04:18;charging;4.197;23;12
2025-09-23;09:04:36;charging;4.197;23;13
2025-09-23;09:04:54;charging;4.197;23;14
2025-09-23;09:05:12;charging;4.197;23;15
2025-09-23;09:05:30;charging;4.197;23;16
2025-09-23;09:05:48;charging;4.197;23;18
2025-09-23;09:06:06;charging;4.197;23;19
2025-09-23;09:06:24;charging;4.197;23;20
2025-09-23;09:06:42;charging;4.197;23;21
2025-09-23;09:07:00;charging;4.197;23;22
2025-09-23;09:07:18;charging;4.197;23;23
2025-09-23;09:07:36;charging;4.197;23;25
2025-09-23;09:07:54;charging;4.197;23;26
2025-09-23;09:08:12;charging;4.197;23;27
2025-09-23;09:08:30;charging;4.197;23;28
2025-09-23;09:08:48;charging;4.197;23;29
2025-09-23;09:09:06;charging;4.197;23;30
2025-09-23;09:09:24;charging;4.197;23;32
2025-09-23;09:09:42;charging;4.197;23;33
2025-09-23;09:10:00;charging;4.197;23;34
2025-09-23;09:10:18;charging;4.197;22;35
2025-09-23;09:10:36;charging;4.197;22;36
2025-09-23;09:10:54;charging;4.197;22;37
2025-09-23;09:11:12;charging;4.197;22;39
2025-09-23;09:11:30;charging;4.197;22;40
2025-09-23;09:11:48;charging;4.197;22;41
2025-09-23;09:12:06;charging;4.197;22;42
2025-09-23;09:12:24;charging;4.197;22;43
2025-09-23;09:12:42;charging;4.197;22;44
2025-09-23;09:13:00;charging;4.197;22;45
2025-09-23;09:13:18;charging;4.197;22;47
2025-09-23;09:13:36;charging;4.197;22;48
2025-09-23;09:13:54;charging;4.197;22;49
2025-09-23;09:14:12;charging;4.197;22;50
2025-09-23;09:14:30;charging;4.197;22;51
2025-09-23;09:14:47;charging;4.197;22;52
2025-09-23;09:15:05;charging;4.197;22;53
2025-09-23;09:15:24;charging;4.197;22;55
2025-09-23;09:15:42;charging;4.197;22;56
2025-09-23;09:16:00;charging;4.197;22;57
2025-09-23;09:16:18;charging;4.197;22;58
2025-09-23;09:16:36;charging;4.197;22;59
2025-09-23;09:16:54;charging;4.197;22;60
2025-09-23;09:17:12;charging;4.197;22;61
2025-09-23;09:17:30;charging;4.197;22;62
2025-09-23;09:17:48;charging;4.197;22;64
2025-09-23;09:18:06;charging;4.197;22;65
2025-09-23;09:18:24;charging;4.197;22;66
2025-09-23;09:18:42;charging;4.197;22;67
2025-09-23;09:19:00;charging;4.197;22;68
2025-09-23;09:19:18;charging;4.203;22;69
2025-09-23;09:19:36;charging;4.203;22;70
2025-09-23;09:19:54;charging;4.197;22;71
2025-09-23;09:20:12;charging;4.197;22;72
2025-09-23;09:20:30;charging;4.197;22;74
2025-09-23;09:20:48;charging;4.197;22;75
2025-09-23;09:21:06;charging;4.197;22;76
2025-09-23;09:21:24;charging;4.197;22;77
2025-09-23;09:21:41;charging;4.197;22;78
2025-09-23;09:22:00;charging;4.197;22;79
2025-09-23;09:22:18;charging;4.197;22;80
2025-09-23;09:22:35;charging;4.197;21;81
2025-09-23;09:22:54;charging;4.197;22;82
2025-09-23;09:23:11;charging;4.197;22;84
2025-09-23;09:23:30;charging;4.197;21;85
2025-09-23;09:23:48;charging;4.197;21;86
2025-09-23;09:24:06;charging;4.197;21;87
2025-09-23;09:24:24;charging;4.197;21;88
2025-09-23;09:24:42;charging;4.197;21;89
2025-09-23;09:25:00;charging;4.197;21;90
2025-09-23;09:25:18;charging;4.197;21;91
2025-09-23;09:25:36;charging;4.197;21;92
2025-09-23;09:25:53;charging;4.197;21;93
2025-09-23;09:26:11;charging;4.197;21;95
2025-09-23;09:26:30;charging;4.197;21;96
2025-09-23;09:26:47;charging;4.197;21;97
2025-09-23;09:27:05;charging;4.197;21;98
2025-09-23;09:27:23;charging;4.202;21;99
2025-09-23;09:27:41;charging;4.202;21;100
2025-09-23;09:28:00;charging;4.197;21;101
2025-09-23;09:28:17;charging;4.197;21;102
2025-09-23;09:28:36;charging;4.197;21;103
2025-09-23;09:28:53;charging;4.197;21;104
2025-09-23;09:29:12;charging;4.197;21;105
2025-09-23;09:29:30;charging;4.197;21;106
2025-09-23;09:29:48;charging;4.197;21;107
2025-09-23;09:30:05;charging;4.197;21;109
2025-09-23;09:30:23;charging;4.203;21;110
2025-09-23;09:30:42;charging;4.196;21;111
2025-09-23;09:31:00;charging;4.2;21;112
2025-09-23;09:31:17;charging;4.196;21;113
2025-09-23;09:31:36;charging;4.197;21;114
2025-09-23;09:31:53;charging;4.197;21;115
2025-09-23;09:32:11;charging;4.197;21;116
2025-09-23;09:32:29;charging;4.196;20;117
2025-09-23;09:32:47;charging;4.197;21;118
2025-09-23;09:33:06;charging;4.205;21;119
2025-09-23;09:33:23;charging;4.197;21;120
2025-09-23;09:33:41;charging;4.196;20;121
2025-09-23;09:33:59;charging;4.197;20;122
2025-09-23;09:34:17;charging;4.197;21;123
2025-09-23;09:34:35;charging;4.204;21;125
2025-09-23;09:34:53;charging;4.2;20;126
2025-09-23;09:35:11;charging;4.196;20;127
2025-09-23;09:35:29;charging;4.203;20;128
2025-09-23;09:35:47;charging;4.197;20;129
2025-09-23;09:36:05;charging;4.205;20;130
2025-09-23;09:36:23;charging;4.203;20;131
2025-09-23;09:36:41;charging;4.2;20;132
2025-09-23;09:36:59;charging;4.2;20;133
2025-09-23;09:37:17;charging;4.199;20;134
2025-09-23;09:37:35;charging;4.201;20;135
2025-09-23;09:37:53;charging;4.197;20;136
2025-09-23;09:38:11;charging;4.197;20;137
2025-09-23;09:38:30;charging;4.204;20;138
2025-09-23;09:38:48;charging;4.197;20;139
2025-09-23;09:39:05;charging;4.196;20;140
2025-09-23;09:39:23;charging;4.197;20;141
2025-09-23;09:39:41;charging;4.197;20;142
2025-09-23;09:39:59;charging;4.197;20;143
2025-09-23;09:40:17;charging;4.197;20;144
2025-09-23;09:40:35;charging;4.203;20;145
2025-09-23;09:40:54;charging;4.205;20;146
2025-09-23;09:41:11;charging;4.197;20;147
2025-09-23;09:41:29;charging;4.204;20;148
2025-09-23;09:41:47;charging;4.197;20;149
2025-09-23;09:42:05;charging;4.197;20;151
2025-09-23;09:42:23;charging;4.197;20;152
2025-09-23;09:42:41;charging;4.197;20;153
2025-09-23;09:42:59;charging;4.197;20;154
2025-09-23;09:43:17;charging;4.197;20;155
2025-09-23;09:43:35;charging;4.2;20;156
2025-09-23;09:43:53;charging;4.197;20;157
2025-09-23;09:44:11;charging;4.197;19;158
2025-09-23;09:44:29;charging;4.203;20;159
2025-09-23;09:44:47;charging;4.201;20;160
2025-09-23;09:45:05;charging;4.196;20;161
2025-09-23;09:45:23;charging;4.204;20;162
2025-09-23;09:45:41;charging;4.197;20;163
2025-09-23;09:45:59;charging;4.2;20;164
2025-09-23;09:46:17;charging;4.196;19;165
2025-09-23;09:46:35;charging;4.203;20;166
2025-09-23;09:46:53;charging;4.197;20;167
2025-09-23;09:47:11;charging;4.205;19;168
2025-09-23;09:47:29;charging;4.199;19;169
2025-09-23;09:47:47;charging;4.202;20;170
2025-09-23;09:48:05;charging;4.197;20;171
2025-09-23;09:48:23;charging;4.204;19;172
2025-09-23;09:48:41;charging;4.197;20;173
2025-09-23;09:48:59;charging;4.197;19;174
2025-09-23;09:49:17;charging;4.198;19;175
2025-09-23;09:49:35;charging;4.197;19;176
2025-09-23;09:49:53;charging;4.201;19;177
2025-09-23;09:50:11;charging;4.196;19;178
2025-09-23;09:50:29;charging;4.196;19;179
2025-09-23;09:50:47;charging;4.197;19;180
2025-09-23;09:51:05;charging;4.197;19;181
2025-09-23;09:51:23;charging;4.197;19;182
2025-09-23;09:51:41;charging;4.196;19;183
2025-09-23;09:51:59;charging;4.196;19;184
2025-09-23;09:52:17;charging;4.205;19;185
2025-09-23;09:52:35;charging;4.199;19;186
2025-09-23;09:52:53;charging;4.196;19;187
2025-09-23;09:53:11;charging;4.202;19;188
2025-09-23;09:53:29;charging;4.198;19;189
2025-09-23;09:53:47;charging;4.197;19;190
2025-09-23;09:54:05;charging;4.196;19;191
2025-09-23;09:54:23;charging;4.202;19;192
2025-09-23;09:54:41;charging;4.201;19;193
2025-09-23;09:54:59;charging;4.197;19;194
2025-09-23;09:55:17;charging;4.197;19;195
2025-09-23;09:55:35;charging;4.196;19;196
2025-09-23;09:55:53;charging;4.197;19;197
2025-09-23;09:56:11;charging;4.2;19;198
2025-09-23;09:56:29;charging;4.196;19;199
2025-09-23;09:56:47;charging;4.196;19;200
2025-09-23;09:57:05;charging;4.201;18;200
2025-09-23;09:57:23;charging;4.198;19;201
2025-09-23;09:57:41;charging;4.196;18;202
2025-09-23;09:57:59;charging;4.198;18;203
2025-09-23;09:58:17;charging;4.196;18;204
2025-09-23;09:58:35;charging;4.2;18;205
2025-09-23;09:58:53;charging;4.196;18;206
2025-09-23;09:59:11;charging;4.196;18;207
2025-09-23;09:59:29;charging;4.197;19;208
2025-09-23;09:59:47;charging;4.196;18;209
2025-09-23;10:00:05;charging;4.196;19;210
2025-09-23;10:00:23;charging;4.196;18;211
2025-09-23;10:00:41;charging;4.197;19;212
2025-09-23;10:00:59;charging;4.196;19;213
2025-09-23;10:01:17;charging;4.196;18;214
2025-09-23;10:01:35;charging;4.195;18;215
2025-09-23;10:01:53;charging;4.197;18;216
2025-09-23;10:02:11;charging;4.203;19;217
2025-09-23;10:02:29;charging;4.198;19;218
2025-09-23;10:02:47;charging;4.197;19;219
2025-09-23;10:03:05;charging;4.201;19;220
2025-09-23;10:03:23;charging;4.196;18;221
2025-09-23;10:03:41;charging;4.196;18;222
2025-09-23;10:03:59;charging;4.196;18;223
2025-09-23;10:04:17;charging;4.197;18;224
2025-09-23;10:04:35;charging;4.196;19;225
2025-09-23;10:04:53;charging;4.197;18;225
2025-09-23;10:05:11;charging;4.196;18;226
2025-09-23;10:05:29;charging;4.196;18;227
2025-09-23;10:05:47;charging;4.197;19;228
2025-09-23;10:06:05;charging;4.196;18;229
2025-09-23;10:06:23;charging;4.196;18;230
2025-09-23;10:06:41;charging;4.197;18;231
2025-09-23;10:06:59;charging;4.197;19;232
2025-09-23;10:07:17;charging;4.196;18;233
2025-09-23;10:07:35;charging;4.196;18;234
2025-09-23;10:07:53;charging;4.196;18;235
2025-09-23;10:08:11;charging;4.197;18;236
2025-09-23;10:08:29;charging;4.196;18;237
2025-09-23;10:08:47;charging;4.197;18;238
2025-09-23;10:09:05;charging;4.197;18;239
2025-09-23;10:09:23;charging;4.196;18;240
2025-09-23;10:09:41;charging;4.197;18;241
2025-09-23;10:09:59;charging;4.197;18;241
2025-09-23;10:10:17;charging;4.197;18;242
2025-09-23;10:10:35;charging;4.197;18;243
2025-09-23;10:10:53;charging;4.197;18;244
2025-09-23;10:11:11;charging;4.196;18;245
2025-09-23;10:11:29;charging;4.197;18;246
2025-09-23;10:11:47;charging;4.197;18;247
2025-09-23;10:12:05;charging;4.197;18;248
2025-09-23;10:12:23;charging;4.197;18;249
2025-09-23;10:12:41;charging;4.197;18;250
2025-09-23;10:12:59;charging;4.197;18;251
2025-09-23;10:13:17;charging;4.197;18;252
2025-09-23;10:13:35;charging;4.197;18;252
2025-09-23;10:13:53;charging;4.197;18;253
2025-09-23;10:14:11;charging;4.196;18;254
2025-09-23;10:14:29;charging;4.197;18;255
2025-09-23;10:14:47;charging;4.197;17;256
2025-09-23;10:15:05;charging;4.196;18;257
2025-09-23;10:15:23;charging;4.197;18;258
2025-09-23;10:15:41;charging;4.197;17;259
2025-09-23;10:15:59;charging;4.197;17;260
2025-09-23;10:16:17;charging;4.196;17;261
2025-09-23;10:16:35;charging;4.197;18;262
2025-09-23;10:16:53;charging;4.197;17;263
2025-09-23;10:17:11;charging;4.196;18;263
2025-09-23;10:17:29;charging;4.197;17;264
2025-09-23;10:17:47;charging;4.197;17;265
2025-09-23;10:18:05;charging;4.197;17;266
2025-09-23;10:18:23;charging;4.197;17;267
2025-09-23;10:18:41;charging;4.197;17;268
2025-09-23;10:18:59;charging;4.197;17;269
2025-09-23;10:19:17;charging;4.196;17;270
2025-09-23;10:19:35;charging;4.196;17;271
2025-09-23;10:19:53;charging;4.197;17;271
2025-09-23;10:20:11;charging;4.197;17;272
2025-09-23;10:20:29;charging;4.197;17;273
2025-09-23;10:20:47;charging;4.197;17;274
2025-09-23;10:21:05;charging;4.197;17;275
2025-09-23;10:21:23;charging;4.197;17;276
2025-09-23;10:21:41;charging;4.197;17;277
2025-09-23;10:21:59;charging;4.197;17;278
2025-09-23;10:22:17;charging;4.197;17;279
2025-09-23;10:22:35;charging;4.197;17;279
2025-09-23;10:22:53;charging;4.197;18;280
2025-09-23;10:23:11;charging;4.196;17;281
2025-09-23;10:23:29;charging;4.197;17;282
2025-09-23;10:23:47;charging;4.197;17;283
2025-09-23;10:24:05;charging;4.197;17;284
2025-09-23;10:24:23;charging;4.196;17;285
2025-09-23;10:24:41;charging;4.196;17;286
2025-09-23;10:24:59;charging;4.197;17;287
2025-09-23;10:25:17;charging;4.196;17;287
2025-09-23;10:25:35;charging;4.197;17;288
2025-09-23;10:25:53;charging;4.197;17;289
2025-09-23;10:26:11;charging;4.196;17;290
2025-09-23;10:26:29;charging;4.196;17;291
2025-09-23;10:26:47;charging;4.197;17;292
2025-09-23;10:27:05;charging;4.196;17;293
2025-09-23;10:27:23;charging;4.196;17;294
2025-09-23;10:27:41;charging;4.197;16;294
2025-09-23;10:27:59;charging;4.197;16;295
2025-09-23;10:28:17;charging;4.197;17;296
2025-09-23;10:28:35;charging;4.197;16;297
2025-09-23;10:28:53;charging;4.196;16;298
2025-09-23;10:29:11;charging;4.197;17;299
2025-09-23;10:29:29;charging;4.197;16;300
2025-09-23;10:29:47;charging;4.196;16;300
2025-09-23;10:30:05;charging;4.197;16;301
2025-09-23;10:30:23;charging;4.197;16;302
2025-09-23;10:30:41;charging;4.197;16;303
2025-09-23;10:30:59;charging;4.196;17;304
2025-09-23;10:31:17;charging;4.197;16;305
2025-09-23;10:31:35;charging;4.197;17;306
2025-09-23;10:31:53;charging;4.197;16;306
2025-09-23;10:32:11;charging;4.197;17;307
2025-09-23;10:32:29;charging;4.197;17;308
2025-09-23;10:32:47;charging;4.196;16;309
2025-09-23;10:33:05;charging;4.197;16;310
2025-09-23;10:33:23;charging;4.196;16;311
2025-09-23;10:33:41;charging;4.196;16;311
2025-09-23;10:33:59;charging;4.197;16;312
2025-09-23;10:34:17;charging;4.197;16;313
2025-09-23;10:34:35;charging;4.197;16;314
2025-09-23;10:34:53;charging;4.197;16;315
2025-09-23;10:35:11;charging;4.197;16;316
2025-09-23;10:35:29;charging;4.197;16;316
2025-09-23;10:35:47;charging;4.197;16;317
2025-09-23;10:36:05;charging;4.197;16;318
2025-09-23;10:36:23;charging;4.197;16;319
2025-09-23;10:36:41;charging;4.197;16;320
2025-09-23;10:36:59;charging;4.197;16;321
2025-09-23;10:37:17;charging;4.196;16;321
2025-09-23;10:37:35;charging;4.197;16;322
2025-09-23;10:37:53;charging;4.197;16;323
2025-09-23;10:38:11;charging;4.197;16;324
2025-09-23;10:38:29;charging;4.197;16;325
2025-09-23;10:38:47;charging;4.197;16;326
2025-09-23;10:39:05;charging;4.197;16;326
2025-09-23;10:39:23;charging;4.197;16;327
2025-09-23;10:39:41;charging;4.197;16;328
2025-09-23;10:39:59;charging;4.197;16;329
2025-09-23;10:40:17;charging;4.197;16;330
2025-09-23;10:40:35;charging;4.197;16;330
2025-09-23;10:40:53;charging;4.197;16;331
2025-09-23;10:41:11;charging;4.197;16;332
2025-09-23;10:41:29;charging;4.197;16;333
2025-09-23;10:41:47;charging;4.197;16;334
2025-09-23;10:42:05;charging;4.197;16;334
2025-09-23;10:42:23;charging;4.197;16;335
2025-09-23;10:42:41;charging;4.197;15;336
2025-09-23;10:42:59;charging;4.197;16;337
2025-09-23;10:43:17;charging;4.197;15;338
2025-09-23;10:43:35;charging;4.197;15;339
2025-09-23;10:43:53;charging;4.197;15;339
2025-09-23;10:44:11;charging;4.197;15;340
2025-09-23;10:44:29;charging;4.197;15;341
2025-09-23;10:44:47;charging;4.197;15;342
2025-09-23;10:45:05;charging;4.197;15;343
2025-09-23;10:45:23;charging;4.197;15;343
2025-09-23;10:45:41;charging;4.197;15;344
2025-09-23;10:45:59;charging;4.197;15;345
2025-09-23;10:46:17;charging;4.197;15;346
2025-09-23;10:46:35;charging;4.197;15;346
2025-09-23;10:46:53;charging;4.197;15;347
2025-09-23;10:47:11;charging;4.197;15;348
2025-09-23;10:47:29;charging;4.197;15;349
2025-09-23;10:47:47;charging;4.197;15;350
2025-09-23;10:48:05;charging;4.197;15;350
2025-09-23;10:48:23;charging;4.197;15;351
2025-09-23;10:48:41;charging;4.197;15;352
2025-09-23;10:48:59;charging;4.197;15;353
2025-09-23;10:49:17;charging;4.197;15;354
2025-09-23;10:49:35;charging;4.197;15;354
2025-09-23;10:49:53;charging;4.197;15;355
2025-09-23;10:50:11;charging;4.197;15;356
2025-09-23;10:50:29;charging;4.197;15;357
2025-09-23;10:50:47;charging;4.197;15;358
2025-09-23;10:51:05;charging;4.197;15;358
2025-09-23;10:51:23;charging;4.197;15;359
2025-09-23;10:51:41;charging;4.197;15;360
2025-09-23;10:51:59;charging;4.197;15;361
2025-09-23;10:52:17;charging;4.197;15;361
2025-09-23;10:52:35;charging;4.197;15;362
2025-09-23;10:52:53;charging;4.197;15;363
2025-09-23;10:53:11;charging;4.197;15;364
2025-09-23;10:53:29;charging;4.197;15;364
2025-09-23;10:53:47;charging;4.197;15;365
2025-09-23;10:54:05;charging;4.197;15;366
2025-09-23;10:54:23;charging;4.197;15;367
2025-09-23;10:54:41;charging;4.197;15;368
2025-09-23;10:54:59;charging;4.197;15;368
2025-09-23;10:55:17;charging;4.197;15;369
2025-09-23;10:55:35;charging;4.197;15;370
2025-09-23;10:55:53;charging;4.197;15;371
2025-09-23;10:56:11;charging;4.197;15;371
2025-09-23;10:56:29;charging;4.197;15;372
2025-09-23;10:56:47;charging;4.197;15;373
2025-09-23;10:57:05;charging;4.197;15;374
2025-09-23;10:57:23;charging;4.197;15;374
2025-09-23;10:57:41;charging;4.197;15;375
2025-09-23;10:57:59;charging;4.197;15;376
2025-09-23;10:58:17;charging;4.197;15;377
2025-09-23;10:58:35;charging;4.197;15;377
2025-09-23;10:58:53;charging;4.197;14;378
2025-09-23;10:59:11;charging;4.197;14;379
2025-09-23;10:59:29;charging;4.197;14;380
2025-09-23;10:59:47;charging;4.197;14;380
2025-09-23;11:00:05;charging;4.197;14;381
2025-09-23;11:00:23;charging;4.197;14;382
2025-09-23;11:00:41;charging;4.197;14;383
2025-09-23;11:00:59;charging;4.197;14;383
2025-09-23;11:01:17;charging;4.197;14;384
2025-09-23;11:01:35;charging;4.197;14;385
2025-09-23;11:01:53;charging;4.197;14;386
2025-09-23;11:02:11;charging;4.197;14;386
2025-09-23;11:02:29;charging;4.197;14;387
2025-09-23;11:02:47;charging;4.197;14;388
2025-09-23;11:03:05;charging;4.197;14;389
2025-09-23;11:03:23;charging;4.197;14;389
2025-09-23;11:03:41;charging;4.197;14;390
2025-09-23;11:03:59;charging;4.197;14;391
2025-09-23;11:04:17;charging;4.197;14;392
2025-09-23;11:04:35;charging;4.197;14;392
2025-09-23;11:04:53;charging;4.197;14;393
2025-09-23;11:05:11;charging;4.197;14;394
2025-09-23;11:05:29;charging;4.197;14;395
2025-09-23;11:05:47;charging;4.197;14;395
2025-09-23;11:06:05;charging;4.197;14;396
2025-09-23;11:06:23;charging;4.197;14;397
2025-09-23;11:06:41;charging;4.197;14;398
2025-09-23;11:06:59;charging;4.197;14;398
2025-09-23;11:07:17;charging;4.197;14;399
2025-09-23;11:07:35;charging;4.197;14;400
2025-09-23;11:07:53;charging;4.197;14;400
2025-09-23;11:08:11;charging;4.197;14;401
2025-09-23;11:08:29;charging;4.197;14;402
2025-09-23;11:08:47;charging;4.197;14;403
2025-09-23;11:09:05;charging;4.197;14;403
2025-09-23;11:09:23;charging;4.197;14;404
2025-09-23;11:09:41;charging;4.197;14;405
2025-09-23;11:09:59;charging;4.197;14;406
2025-09-23;11:10:17;charging;4.197;14;406
2025-09-23;11:10:35;charging;4.197;14;407
2025-09-23;11:10:53;charging;4.197;14;408
2025-09-23;11:11:11;charging;4.197;14;408
2025-09-23;11:11:29;charging;4.197;14;409
2025-09-23;11:11:47;charging;4.197;14;410
2025-09-23;11:12:05;charging;4.197;14;411
2025-09-23;11:12:23;charging;4.197;14;411
2025-09-23;11:12:41;charging;4.197;14;412
2025-09-23;11:12:59;charging;4.197;14;413
2025-09-23;11:13:17;charging;4.197;14;413
2025-09-23;11:13:35;charging;4.197;14;414
2025-09-23;11:13:53;charging;4.197;14;415
2025-09-23;11:14:11;charging;4.197;14;416
2025-09-23;11:14:29;charging;4.197;14;416
2025-09-23;11:14:47;charging;4.197;14;417
2025-09-23;11:15:05;charging;4.197;14;418
2025-09-23;11:15:23;charging;4.197;14;418
2025-09-23;11:15:41;charging;4.197;13;419
2025-09-23;11:15:59;charging;4.197;14;420
2025-09-23;11:16:17;charging;4.197;13;421
2025-09-23;11:16:35;charging;4.197;13;421
2025-09-23;11:16:53;charging;4.197;13;422
2025-09-23;11:17:11;charging;4.197;13;423
2025-09-23;11:17:29;charging;4.197;13;423
2025-09-23;11:17:47;charging;4.197;13;424
2025-09-23;11:18:05;charging;4.197;13;425
2025-09-23;11:18:23;charging;4.204;13;425
2025-09-23;11:18:41;charging;4.197;13;426
2025-09-23;11:18:59;charging;4.197;13;427
2025-09-23;11:19:17;charging;4.197;13;427
2025-09-23;11:19:35;charging;4.197;13;428
2025-09-23;11:19:53;charging;4.197;13;429
2025-09-23;11:20:11;charging;4.197;13;430
2025-09-23;11:20:29;charging;4.197;13;430
2025-09-23;11:20:47;charging;4.202;13;431
2025-09-23;11:21:05;charging;4.197;13;432
2025-09-23;11:21:23;charging;4.203;13;432
2025-09-23;11:21:41;charging;4.197;13;433
2025-09-23;11:21:59;charging;4.197;13;434
2025-09-23;11:22:17;charging;4.197;13;434
2025-09-23;11:22:35;charging;4.197;13;435
2025-09-23;11:22:53;charging;4.204;13;436
2025-09-23;11:23:11;charging;4.204;13;436
2025-09-23;11:23:29;charging;4.204;13;437
2025-09-23;11:23:47;charging;4.204;13;438
2025-09-23;11:24:05;charging;4.201;13;438
2025-09-23;11:24:23;charging;4.202;13;439
2025-09-23;11:24:41;charging;4.201;13;440
2025-09-23;11:24:59;charging;4.197;13;440
2025-09-23;11:25:17;charging;4.201;13;441
2025-09-23;11:25:35;charging;4.202;13;442
2025-09-23;11:25:53;charging;4.197;13;442
2025-09-23;11:26:11;charging;4.196;13;443
2025-09-23;11:26:29;charging;4.196;13;444
2025-09-23;11:26:47;charging;4.197;13;444
2025-09-23;11:27:05;charging;4.197;13;445
2025-09-23;11:27:23;charging;4.205;13;446
2025-09-23;11:27:41;charging;4.201;13;446
2025-09-23;11:27:59;charging;4.197;12;447
2025-09-23;11:28:17;charging;4.201;13;448
2025-09-23;11:28:35;charging;4.202;13;448
2025-09-23;11:28:53;charging;4.196;12;449
2025-09-23;11:29:11;charging;4.201;13;450
2025-09-23;11:29:29;charging;4.2;13;450
2025-09-23;11:29:47;charging;4.197;13;451
2025-09-23;11:30:05;charging;4.2;12;452
2025-09-23;11:30:23;charging;4.197;13;452
2025-09-23;11:30:41;charging;4.202;13;453
2025-09-23;11:30:59;charging;4.204;13;454
2025-09-23;11:31:17;charging;4.205;12;454
2025-09-23;11:31:35;charging;4.202;13;455
2025-09-23;11:31:53;charging;4.197;12;456
2025-09-23;11:32:11;charging;4.199;12;456
2025-09-23;11:32:29;charging;4.2;13;457
2025-09-23;11:32:47;charging;4.197;12;458
2025-09-23;11:33:05;charging;4.201;12;458
2025-09-23;11:33:23;charging;4.197;12;459
2025-09-23;11:33:41;charging;4.196;12;460
2025-09-23;11:33:59;charging;4.199;12;460
2025-09-23;11:34:17;charging;4.197;12;461
2025-09-23;11:34:35;charging;4.201;12;461
2025-09-23;11:34:53;charging;4.197;12;462
2025-09-23;11:35:11;charging;4.197;12;463
2025-09-23;11:35:29;charging;4.197;12;463
2025-09-23;11:35:47;charging;4.196;12;464
2025-09-23;11:36:05;charging;4.197;12;465
2025-09-23;11:36:23;charging;4.197;12;465
2025-09-23;11:36:41;charging;4.197;12;466
2025-09-23;11:36:59;charging;4.196;12;467
2025-09-23;11:37:17;charging;4.196;12;467
2025-09-23;11:37:35;charging;4.196;12;468
2025-09-23;11:37:53;charging;4.197;12;468
2025-09-23;11:38:11;charging;4.197;12;469
2025-09-23;11:38:29;charging;4.197;12;470
2025-09-23;11:38:47;charging;4.197;12;470
2025-09-23;11:39:05;charging;4.197;12;471
2025-09-23;11:39:23;charging;4.195;11;472
2025-09-23;11:39:41;charging;4.195;12;472
2025-09-23;11:39:59;charging;4.196;12;473
2025-09-23;11:40:17;charging;4.202;12;473
2025-09-23;11:40:35;charging;4.197;11;474
2025-09-23;11:40:53;charging;4.197;12;475
2025-09-23;11:41:11;charging;4.196;11;475
2025-09-23;11:41:29;charging;4.196;11;476
2025-09-23;11:41:47;charging;4.196;11;477
2025-09-23;11:42:05;charging;4.197;11;477
2025-09-23;11:42:23;charging;4.197;12;478
2025-09-23;11:42:41;charging;4.196;11;478
2025-09-23;11:42:59;charging;4.196;11;479
2025-09-23;11:43:17;charging;4.197;12;480
2025-09-23;11:43:35;charging;4.196;12;480
2025-09-23;11:43:53;charging;4.196;11;481
2025-09-23;11:44:11;charging;4.196;11;481
2025-09-23;11:44:29;charging;4.197;12;482
2025-09-23;11:44:47;charging;4.197;11;483
2025-09-23;11:45:05;charging;4.197;12;483
2025-09-23;11:45:23;charging;4.197;12;484
2025-09-23;11:45:41;charging;4.197;12;484
2025-09-23;11:45:59;charging;4.197;11;485
2025-09-23;11:46:17;charging;4.196;11;486
2025-09-23;11:46:35;charging;4.197;11;486
2025-09-23;11:46:53;charging;4.197;12;487
2025-09-23;11:47:11;charging;4.197;11;487
2025-09-23;11:47:29;charging;4.196;11;488
2025-09-23;11:47:47;charging;4.196;11;489
2025-09-23;11:48:05;charging;4.197;11;489
2025-09-23;11:48:23;charging;4.196;11;490
2025-09-23;11:48:41;charging;4.197;11;490
2025-09-23;11:48:59;charging;4.196;11;491
2025-09-23;11:49:17;charging;4.197;12;492
2025-09-23;11:49:35;charging;4.197;11;492
2025-09-23;11:49:53;charging;4.196;11;493
2025-09-23;11:50:11;charging;4.197;11;493
2025-09-23;11:50:29;charging;4.197;11;494
2025-09-23;11:50:47;charging;4.197;11;494
2025-09-23;11:51:05;charging;4.197;12;495
2025-09-23;11:51:23;charging;4.197;12;496
2025-09-23;11:51:41;charging;4.197;11;496
2025-09-23;11:51:59;charging;4.197;11;497
2025-09-23;11:52:17;charging;4.197;11;497
2025-09-23;11:52:35;charging;4.197;11;498
2025-09-23;11:52:53;charging;4.197;11;499
2025-09-23;11:53:11;charging;4.197;11;499
2025-09-23;11:53:29;charging;4.196;11;500
2025-09-23;11:53:47;charging;4.197;11;500
2025-09-23;11:54:05;charging;4.197;11;501
2025-09-23;11:54:23;charging;4.197;11;501
2025-09-23;11:54:41;charging;4.197;11;502
2025-09-23;11:54:59;charging;4.197;11;503
2025-09-23;11:55:17;charging;4.197;11;503
2025-09-23;11:55:35;charging;4.197;11;504
2025-09-23;11:55:53;charging;4.197;11;504
2025-09-23;11:56:11;charging;4.197;11;505
2025-09-23;11:56:29;charging;4.197;11;505
2025-09-23;11:56:47;charging;4.197;11;506
2025-09-23;11:57:05;charging;4.197;11;507
2025-09-23;11:57:23;charging;4.197;11;507
2025-09-23;11:57:41;charging;4.197;11;508
2025-09-23;11:57:59;charging;4.197;11;508
2025-09-23;11:58:17;charging;4.197;11;509
2025-09-23;11:58:35;charging;4.196;11;509
2025-09-23;11:58:53;charging;4.197;11;510
2025-09-23;11:59:11;charging;4.197;11;511
2025-09-23;11:59:29;charging;4.197;11;511
2025-09-23;11:59:47;charging;4.197;11;512
2025-09-23;12:00:05;charging;4.197;11;512
2025-09-23;12:00:23;charging;4.197;11;513
2025-09-23;12:00:41;charging;4.197;11;513
2025-09-23;12:00:59;charging;4.196;11;514
2025-09-23;12:01:17;charging;4.197;11;515
2025-09-23;12:01:35;charging;4.196;11;515
2025-09-23;12:01:53;charging;4.196;11;516
2025-09-23;12:02:11;charging;4.197;11;516
2025-09-23;12:02:29;charging;4.197;11;517
2025-09-23;12:02:47;charging;4.197;10;517
2025-09-23;12:03:05;charging;4.197;11;518
2025-09-23;12:03:23;charging;4.197;10;518
2025-09-23;12:03:41;charging;4.197;11;519
2025-09-23;12:03:59;charging;4.197;10;520
2025-09-23;12:04:17;charging;4.196;11;520
2025-09-23;12:04:35;charging;4.197;10;521
2025-09-23;12:04:53;charging;4.197;10;521
2025-09-23;12:05:11;charging;4.197;10;522
2025-09-23;12:05:29;charging;4.197;10;522
2025-09-23;12:05:47;charging;4.197;10;523
2025-09-23;12:06:05;charging;4.197;10;523
2025-09-23;12:06:23;charging;4.197;10;524
2025-09-23;12:06:41;charging;4.197;10;525
2025-09-23;12:06:59;charging;4.197;10;525
2025-09-23;12:07:17;charging;4.197;10;526
2025-09-23;12:07:35;charging;4.197;10;526
2025-09-23;12:07:53;charging;4.197;10;527
2025-09-23;12:08:11;charging;4.197;10;527
2025-09-23;12:08:29;charging;4.197;10;528
2025-09-23;12:08:47;charging;4.197;10;528
2025-09-23;12:09:05;charging;4.197;11;529
2025-09-23;12:09:23;charging;4.197;11;529
2025-09-23;12:09:41;charging;4.197;10;530
2025-09-23;12:09:59;charging;4.197;11;530
2025-09-23;12:10:17;charging;4.197;10;531
2025-09-23;12:10:35;charging;4.197;10;532
2025-09-23;12:10:53;charging;4.197;10;532
2025-09-23;12:11:11;charging;4.197;10;533
2025-09-23;12:11:29;charging;4.196;10;533
2025-09-23;12:11:47;charging;4.197;10;534
2025-09-23;12:12:05;charging;4.197;10;534
2025-09-23;12:12:23;charging;4.197;10;535
2025-09-23;12:12:41;charging;4.197;10;535
2025-09-23;12:12:59;charging;4.196;10;536
2025-09-23;12:13:17;charging;4.197;10;536
2025-09-23;12:13:35;charging;4.197;10;537
2025-09-23;12:13:53;charging;4.197;11;537
2025-09-23;12:14:11;charging;4.197;10;538
2025-09-23;12:14:29;charging;4.197;10;539
2025-09-23;12:14:47;charging;4.197;10;539
2025-09-23;12:15:05;charging;4.197;10;540
2025-09-23;12:15:23;charging;4.197;10;540
2025-09-23;12:15:41;charging;4.197;10;541
2025-09-23;12:15:59;charging;4.197;10;541
2025-09-23;12:16:17;charging;4.197;10;542
2025-09-23;12:16:35;charging;4.197;10;542
2025-09-23;12:16:53;charging;4.197;10;543
2025-09-23;12:17:11;charging;4.197;10;543
2025-09-23;12:17:29;charging;4.197;10;544
2025-09-23;12:17:47;charging;4.197;10;544
2025-09-23;12:18:05;charging;4.197;10;545
2025-09-23;12:18:23;charging;4.197;10;545
2025-09-23;12:18:41;charging;4.197;10;546
2025-09-23;12:18:59;charging;4.197;10;546
2025-09-23;12:19:17;charging;4.197;10;547
2025-09-23;12:19:35;charging;4.197;10;548
2025-09-23;12:19:53;charging;4.197;10;548
2025-09-23;12:20:11;charging;4.197;10;549
2025-09-23;12:20:29;charging;4.197;10;549
2025-09-23;12:20:47;charging;4.197;10;550
2025-09-23;12:21:05;charging;4.197;10;550
2025-09-23;12:21:23;charging;4.197;10;551
2025-09-23;12:21:41;charging;4.197;10;551
2025-09-23;12:21:59;charging;4.197;10;552
2025-09-23;12:22:17;charging;4.197;10;552
2025-09-23;12:22:35;charging;4.197;10;553
2025-09-23;12:22:53;charging;4.197;10;553
2025-09-23;12:23:11;charging;4.197;10;554
2025-09-23;12:23:29;charging;4.197;10;554
2025-09-23;12:23:47;charging;4.197;10;555
2025-09-23;12:24:05;charging;4.197;10;555
2025-09-23;12:24:23;charging;4.197;10;556
2025-09-23;12:24:41;charging;4.197;10;556
2025-09-23;12:24:59;charging;4.197;10;557
2025-09-23;12:25:17;charging;4.196;10;558
2025-09-23;12:25:35;charging;4.197;10;558
2025-09-23;12:25:53;charging;4.197;10;559
2025-09-23;12:26:11;charging;4.197;10;559
2025-09-23;12:26:29;charging;4.197;10;560
2025-09-23;12:26:47;charging;4.197;10;560
2025-09-23;12:27:05;charging;4.197;10;561
2025-09-23;12:27:23;charging;4.197;10;561
2025-09-23;12:27:41;charging;4.197;10;562
2025-09-23;12:27:59;charging;4.197;10;562
2025-09-23;12:28:17;charging;4.197;10;563
2025-09-23;12:28:35;charging;4.197;10;563
2025-09-23;12:28:53;charging;4.197;10;564
2025-09-23;12:29:11;charging;4.197;10;564
2025-09-23;12:29:29;charging;4.197;10;565
2025-09-23;12:29:47;charging;4.197;10;565
2025-09-23;12:30:05;charging;4.197;10;566
2025-09-23;12:30:23;charging;4.197;10;566
2025-09-23;12:30:41;charging;4.197;10;567
2025-09-23;12:30:59;charging;4.197;10;567
2025-09-23;12:31:17;charging;4.197;10;568
2025-09-23;12:31:35;charging;4.197;10;568
2025-09-23;12:31:53;charging;4.196;10;569
2025-09-23;12:32:11;charging;4.197;10;569
2025-09-23;12:32:29;charging;4.197;10;570
2025-09-23;12:32:47;charging;4.197;10;570
2025-09-23;12:33:04;charging;4.197;10;571
2025-09-23;12:33:22;charging;4.197;10;572
2025-09-23;12:33:40;charging;4.197;10;572
2025-09-23;12:33:58;charging;4.197;10;573
2025-09-23;12:34:16;charging;4.197;10;573
2025-09-23;12:34:34;charging;4.197;10;574
2025-09-23;12:34:52;charging;4.197;10;574
2025-09-23;12:35:10;charging;4.197;10;575
2025-09-23;12:35:28;charging;4.197;10;575
2025-09-23;12:35:46;charging;4.197;10;576
2025-09-23;12:36:04;charging;4.197;10;576
2025-09-23;12:36:22;charging;4.197;10;577
2025-09-23;12:36:40;charging;4.197;10;577
2025-09-23;12:36:58;charging;4.197;10;578
2025-09-23;12:37:16;charging;4.197;10;578
2025-09-23;12:37:35;charging;4.197;10;579
2025-09-23;12:37:53;charging;4.197;10;579
2025-09-23;12:38:11;charging;4.197;10;580
2025-09-23;12:38:29;charging;4.197;10;580
2025-09-23;12:38:47;charging;4.197;10;581
2025-09-23;12:39:05;charging;4.197;10;581
2025-09-23;12:39:23;charging;4.197;10;582
2025-09-23;12:39:41;charging;4.197;10;582
2025-09-23;12:39:59;charging;4.197;10;583
2025-09-23;12:40:17;charging;4.197;10;583
2025-09-23;12:40:35;charging;4.197;10;584
2025-09-23;12:40:53;charging;4.197;10;584
2025-09-23;12:41:10;charging;4.197;9;585
2025-09-23;12:41:28;charging;4.197;9;585
2025-09-23;12:41:47;charging;4.196;9;586
2025-09-23;12:42:05;charging;4.197;9;586
2025-09-23;12:42:22;charging;4.197;9;587
2025-09-23;12:42:40;charging;4.197;9;587
2025-09-23;12:42:58;charging;4.196;9;588
2025-09-23;12:43:17;charging;4.197;10;588
2025-09-23;12:43:35;charging;4.197;9;589
2025-09-23;12:43:52;charging;4.197;10;589
2025-09-23;12:44:10;charging;4.197;9;590
2025-09-23;12:44:28;charging;4.196;9;590
2025-09-23;12:44:46;charging;4.197;9;591
2025-09-23;12:45:05;charging;4.196;9;591
2025-09-23;12:45:23;charging;4.197;9;592
2025-09-23;12:45:40;charging;4.197;9;592
2025-09-23;12:45:58;charging;4.197;10;593
2025-09-23;12:46:16;charging;4.196;9;593
2025-09-23;12:46:35;charging;4.196;9;594
2025-09-23;12:46:52;charging;4.197;9;594
2025-09-23;12:47:10;charging;4.196;9;595
2025-09-23;12:47:28;charging;4.197;9;595
2025-09-23;12:47:46;charging;4.197;9;596
2025-09-23;12:48:05;charging;4.196;9;596
2025-09-23;12:48:22;charging;4.196;9;597
2025-09-23;12:48:40;charging;4.197;9;597
2025-09-23;12:48:58;charging;4.197;9;598
2025-09-23;12:49:16;charging;4.196;10;598
2025-09-23;12:49:34;charging;4.197;10;599
2025-09-23;12:49:52;charging;4.197;9;599
2025-09-23;12:50:10;charging;4.196;9;600
2025-09-23;12:50:28;charging;4.196;9;600
2025-09-23;12:50:46;charging;4.197;9;601
2025-09-23;12:51:04;charging;4.197;9;601
2025-09-23;12:51:22;charging;4.197;10;602
2025-09-23;12:51:40;charging;4.197;10;602
2025-09-23;12:51:58;charging;4.197;9;603
2025-09-23;12:52:16;charging;4.197;9;603
2025-09-23;12:52:34;charging;4.197;9;604
2025-09-23;12:52:52;charging;4.197;9;604
2025-09-23;12:53:10;charging;4.197;9;605
2025-09-23;12:53:28;charging;4.197;10;605
2025-09-23;12:53:46;charging;4.197;9;606
2025-09-23;12:54:04;charging;4.196;9;606
2025-09-23;12:54:22;charging;4.197;9;607
2025-09-23;12:54:40;charging;4.197;9;607
2025-09-23;12:54:58;charging;4.197;10;608
2025-09-23;12:55:16;charging;4.197;9;608
2025-09-23;12:55:34;charging;4.197;9;608
2025-09-23;12:55:52;charging;4.196;9;609
2025-09-23;12:56:10;charging;4.197;9;609
2025-09-23;12:56:28;charging;4.197;9;610
2025-09-23;12:56:46;charging;4.196;9;610
2025-09-23;12:57:04;charging;4.197;9;611
2025-09-23;12:57:22;charging;4.197;9;611
2025-09-23;12:57:40;charging;4.197;9;612
2025-09-23;12:57:58;charging;4.197;9;612
2025-09-23;12:58:16;charging;4.197;9;613
2025-09-23;12:58:34;charging;4.197;9;613
2025-09-23;12:58:52;charging;4.197;9;614
2025-09-23;12:59:10;charging;4.197;9;614
2025-09-23;12:59:28;charging;4.197;9;615
2025-09-23;12:59:46;charging;4.197;9;615
2025-09-23;13:00:04;charging;4.197;9;616
2025-09-23;13:00:22;charging;4.196;9;616
2025-09-23;13:00:40;charging;4.197;9;617
2025-09-23;13:00:58;charging;4.197;9;617
2025-09-23;13:01:16;charging;4.197;9;618
2025-09-23;13:01:34;charging;4.197;9;618
2025-09-23;13:01:52;charging;4.197;9;618
2025-09-23;13:02:10;charging;4.197;9;619
2025-09-23;13:02:28;charging;4.197;9;619
2025-09-23;13:02:46;charging;4.197;9;620
2025-09-23;13:03:04;charging;4.197;9;620
2025-09-23;13:03:22;charging;4.196;9;621
2025-09-23;13:03:40;charging;4.197;9;621
2025-09-23;13:03:58;charging;4.197;9;622
2025-09-23;13:04:16;charging;4.197;9;622
2025-09-23;13:04:34;charging;4.197;9;623
[...]
2025-09-23;18:30:50;charging;4.197;5;86
2025-09-23;18:30:56;charging;4.197;5;86
2025-09-23;18:31:02;charging;4.197;5;86
2025-09-23;18:31:08;charging;4.197;5;86
2025-09-23;18:31:14;charging;4.197;5;87
2025-09-23;18:31:20;charging;4.197;5;87
2025-09-23;18:31:26;charging;4.197;5;87
2025-09-23;18:31:32;charging;4.197;5;87
2025-09-23;18:31:38;charging;4.197;5;87
2025-09-23;18:31:44;charging;4.197;5;87
2025-09-23;18:31:50;charging;4.197;5;87
2025-09-23;18:31:56;charging;4.197;5;87
2025-09-23;18:32:02;charging;4.197;5;87
2025-09-23;18:32:08;charging;4.197;5;87
2025-09-23;18:32:14;charging;4.197;6;87
2025-09-23;18:32:20;charging;4.197;6;88
2025-09-23;18:32:26;charging;4.197;6;88
2025-09-23;18:32:32;charging;4.197;6;88
2025-09-23;18:32:38;charging;4.196;6;88
2025-09-23;18:32:44;charging;4.197;6;88
2025-09-23;18:32:50;charging;4.197;6;88
2025-09-23;18:32:56;charging;4.197;6;88
2025-09-23;18:33:02;charging;4.197;6;88
2025-09-23;18:33:08;charging;4.197;6;88
2025-09-23;18:33:14;charging;4.197;6;89
2025-09-23;18:33:20;charging;4.197;6;89
2025-09-23;18:33:26;charging;4.197;6;89
2025-09-23;18:33:32;charging;4.196;6;89
2025-09-23;18:33:38;charging;4.197;6;89
2025-09-23;18:33:44;charging;4.197;6;89
2025-09-23;18:33:50;charging;4.197;6;89
2025-09-23;18:33:56;charging;4.197;6;89
2025-09-23;18:34:02;charging;4.197;6;89
2025-09-23;18:34:08;charging;4.197;6;89
2025-09-23;18:34:14;charging;4.197;6;90
2025-09-23;18:34:20;charging;4.197;6;90
2025-09-23;18:34:26;charging;4.197;6;90
2025-09-23;18:34:32;charging;4.197;6;90
2025-09-23;18:34:38;charging;4.197;6;90
2025-09-23;18:34:44;charging;4.196;6;90
2025-09-23;18:34:50;charging;4.197;6;90
2025-09-23;18:34:56;charging;4.197;6;90
2025-09-23;18:35:02;charging;4.197;6;90
2025-09-23;18:35:08;charging;4.197;6;91
2025-09-23;18:35:14;charging;4.197;6;91
2025-09-23;18:35:20;charging;4.197;6;91
2025-09-23;18:35:26;charging;4.197;6;91
2025-09-23;18:35:32;charging;4.197;6;91
2025-09-23;18:35:38;charging;4.197;6;91
2025-09-23;18:35:44;charging;4.197;6;91
2025-09-23;18:35:50;charging;4.197;6;91
2025-09-23;18:35:56;charging;4.197;6;91
2025-09-23;18:36:02;charging;4.197;6;91
2025-09-23;18:36:08;charging;4.197;6;92
2025-09-23;18:36:14;charging;4.197;6;92
2025-09-23;18:36:20;charging;4.197;6;92
2025-09-23;18:36:26;charging;4.197;6;92
2025-09-23;18:36:32;charging;4.197;6;92
2025-09-23;18:36:38;charging;4.197;6;92
2025-09-23;18:36:44;charging;4.197;6;92
2025-09-23;18:36:50;charging;4.197;6;92
2025-09-23;18:36:56;charging;4.197;6;92
2025-09-23;18:37:02;charging;4.197;6;93
2025-09-23;18:37:08;charging;4.197;6;93
2025-09-23;18:37:14;charging;4.197;6;93
2025-09-23;18:37:20;charging;4.197;6;93
2025-09-23;18:37:26;charging;4.197;6;93
2025-09-23;18:37:32;charging;4.197;6;93
2025-09-23;18:37:38;charging;4.197;6;93
2025-09-23;18:37:44;charging;4.197;6;93
2025-09-23;18:37:50;charging;4.197;6;93
2025-09-23;18:37:56;charging;4.197;6;94
2025-09-23;18:38:02;charging;4.197;6;94
2025-09-23;18:38:08;charging;4.196;6;94
2025-09-23;18:38:14;charging;4.197;6;94
2025-09-23;18:38:20;charging;4.197;6;94
2025-09-23;18:38:26;charging;4.197;6;94
2025-09-23;18:38:32;charging;4.197;6;94
2025-09-23;18:38:38;charging;4.197;6;94
2025-09-23;18:38:44;charging;4.196;6;94
2025-09-23;18:38:50;charging;4.197;6;94
2025-09-23;18:38:56;charging;4.197;6;95
2025-09-23;18:39:02;charging;4.197;6;95
2025-09-23;18:39:08;charging;4.197;6;95
2025-09-23;18:39:14;charging;4.197;6;95
2025-09-23;18:39:20;charging;4.197;6;95
2025-09-23;18:39:26;charging;4.197;6;95
2025-09-23;18:39:32;charging;4.196;6;95
2025-09-23;18:39:38;charging;4.197;6;95
2025-09-23;18:39:44;charging;4.197;6;95
2025-09-23;18:39:50;charging;4.197;6;96
2025-09-23;18:39:56;charging;4.197;6;96
2025-09-23;18:40:02;charging;4.197;6;96
2025-09-23;18:40:08;charging;4.197;6;96
2025-09-23;18:40:14;charging;4.197;6;96
2025-09-23;18:40:20;charging;4.197;6;96
2025-09-23;18:40:26;charging;4.197;6;96
2025-09-23;18:40:32;charging;4.197;6;96
2025-09-23;18:40:38;charging;4.197;6;96
2025-09-23;18:40:44;charging;4.197;6;96
2025-09-23;18:40:50;charging;4.197;6;97
2025-09-23;18:40:56;charging;4.197;6;97
2025-09-23;18:41:02;charging;4.197;6;97
2025-09-23;18:41:08;charging;4.197;6;97
2025-09-23;18:41:14;charging;4.197;6;97
2025-09-23;18:41:20;charging;4.197;6;97
2025-09-23;18:41:26;charging;4.197;6;97
2025-09-23;18:41:32;charging;4.197;6;97
2025-09-23;18:41:38;charging;4.197;6;97
2025-09-23;18:41:44;charging;4.197;6;98
2025-09-23;18:41:50;charging;4.197;6;98
2025-09-23;18:41:56;charging;4.197;6;98
2025-09-23;18:42:02;charging;4.197;6;98
2025-09-23;18:42:08;charging;4.197;6;98
2025-09-23;18:42:14;charging;4.197;6;98
2025-09-23;18:42:20;charging;4.197;6;98
2025-09-23;18:42:26;charging;4.197;6;98
2025-09-23;18:42:32;charging;4.197;6;98
2025-09-23;18:42:38;charging;4.197;6;99
2025-09-23;18:42:44;charging;4.197;6;99
2025-09-23;18:42:50;charging;4.197;6;99
2025-09-23;18:42:56;charging;4.197;6;99
2025-09-23;18:43:02;charging;4.197;6;99
2025-09-23;18:43:08;charging;4.197;6;99
2025-09-23;18:43:14;charging;4.197;6;99
2025-09-23;18:43:20;charging;4.197;6;99
2025-09-23;18:43:26;charging;4.197;6;99
2025-09-23;18:43:32;charging;4.197;6;99
2025-09-23;18:43:38;charging;4.197;6;100
2025-09-23;18:43:44;charging;4.197;6;100
2025-09-23;18:43:50;charging;4.197;6;100
2025-09-23;18:43:56;charging;4.197;6;100
2025-09-23;18:44:02;charging;4.196;6;100
2025-09-23;18:44:08;charging;4.197;6;100
2025-09-23;18:44:14;charging;4.197;6;100
2025-09-23;18:44:20;charging;4.197;6;100
2025-09-23;18:44:26;charging;4.189;5;100
2025-09-23;18:44:32;charging;4.199;6;100
2025-09-23;18:44:38;charging;4.196;6;101
2025-09-23;18:44:44;charging;4.197;6;101
2025-09-23;18:44:50;charging;4.188;5;101
2025-09-23;18:44:56;charging;4.189;6;101
2025-09-23;18:45:02;charging;4.192;6;101
2025-09-23;18:45:08;charging;4.197;6;101
2025-09-23;18:45:14;charging;4.194;6;101
2025-09-23;18:45:20;charging;4.192;5;101
2025-09-23;18:45:26;charging;4.193;6;101
2025-09-23;18:45:32;charging;4.194;6;102
2025-09-23;18:45:38;charging;4.192;5;102
2025-09-23;18:45:44;charging;4.195;5;102
2025-09-23;18:45:50;charging;4.19;5;102
2025-09-23;18:45:56;charging;4.215;5;102
2025-09-23;18:46:02;charging;4.2;5;102
2025-09-23;18:46:08;charging;4.193;5;102
2025-09-23;18:46:14;charging;4.198;5;102
2025-09-23;18:46:20;charging;4.198;6;102
2025-09-23;18:46:26;charging;4.197;6;102
2025-09-23;18:46:32;charging;4.197;6;103
2025-09-23;18:46:38;charging;4.197;6;103
2025-09-23;18:46:44;charging;4.197;6;103
2025-09-23;18:46:50;charging;4.197;6;103
2025-09-23;18:46:56;charging;4.197;6;103
2025-09-23;18:47:02;charging;4.197;6;103
2025-09-23;18:47:08;charging;4.197;6;103
2025-09-23;18:47:14;charging;4.197;6;103
2025-09-23;18:47:20;charging;4.197;6;103
2025-09-23;18:47:26;charging;4.197;6;104
2025-09-23;18:47:32;charging;4.196;6;104
2025-09-23;18:47:38;charging;4.197;6;104
2025-09-23;18:47:44;charging;4.197;6;104
2025-09-23;18:47:50;charging;4.197;6;104
2025-09-23;18:47:56;charging;4.197;6;104
2025-09-23;18:48:02;charging;4.197;6;104
2025-09-23;18:48:08;charging;4.197;6;104
2025-09-23;18:48:14;charging;4.197;6;104
2025-09-23;18:48:20;charging;4.197;6;104
2025-09-23;18:48:26;charging;4.197;6;105
2025-09-23;18:48:32;charging;4.197;6;105
2025-09-23;18:48:38;charging;4.197;6;105
2025-09-23;18:48:44;charging;4.197;6;105
2025-09-23;18:48:50;charging;4.197;6;105
2025-09-23;18:48:56;charging;4.197;6;105
2025-09-23;18:49:02;charging;4.197;6;105
2025-09-23;18:49:08;charging;4.197;6;105
2025-09-23;18:49:14;charging;4.197;6;105
2025-09-23;18:49:20;charging;4.197;6;105
2025-09-23;18:49:26;charging;4.197;6;106
2025-09-23;18:49:32;charging;4.197;6;106
2025-09-23;18:49:38;charging;4.197;6;106
2025-09-23;18:49:44;charging;4.197;6;106
2025-09-23;18:49:50;charging;4.197;6;106
2025-09-23;18:49:56;charging;4.197;6;106
2025-09-23;18:50:02;charging;4.197;6;106
2025-09-23;18:50:08;charging;4.197;6;106
2025-09-23;18:50:14;charging;4.197;6;106
2025-09-23;18:50:20;charging;4.197;6;106
2025-09-23;18:50:26;charging;4.197;6;107
2025-09-23;18:50:32;charging;4.197;6;107
2025-09-23;18:50:38;charging;4.197;6;107
2025-09-23;18:50:44;charging;4.197;6;107
2025-09-23;18:50:50;charging;4.197;6;107
2025-09-23;18:50:56;charging;4.197;6;107
2025-09-23;18:51:02;charging;4.197;6;107
2025-09-23;18:51:08;charging;4.197;6;107
2025-09-23;18:51:14;charging;4.197;6;107
2025-09-23;18:51:20;charging;4.197;6;108
2025-09-23;18:51:26;charging;4.197;6;108
2025-09-23;18:51:32;charging;4.197;6;108
2025-09-23;18:51:38;charging;4.197;6;108
2025-09-23;18:51:44;charging;4.197;6;108
2025-09-23;18:51:50;charging;4.197;6;108
2025-09-23;18:51:56;charging;4.197;6;108
2025-09-23;18:52:02;charging;4.197;6;108
2025-09-23;18:52:08;charging;4.197;6;108
2025-09-23;18:52:14;charging;4.197;5;108
2025-09-23;18:52:20;charging;4.197;5;109
2025-09-23;18:52:26;charging;4.197;5;109
2025-09-23;18:52:32;charging;4.197;5;109
2025-09-23;18:52:38;charging;4.197;5;109
2025-09-23;18:52:44;charging;4.197;6;109
2025-09-23;18:52:50;charging;4.197;6;109
2025-09-23;18:52:56;charging;4.197;6;109
2025-09-23;18:53:02;charging;4.197;6;109
2025-09-23;18:53:08;charging;4.197;6;109
2025-09-23;18:53:14;charging;4.197;6;109
2025-09-23;18:53:20;charging;4.197;6;110
2025-09-23;18:53:26;charging;4.197;6;110
2025-09-23;18:53:32;charging;4.197;6;110
2025-09-23;18:53:38;charging;4.197;6;110
2025-09-23;18:53:44;charging;4.197;6;110
2025-09-23;18:53:50;charging;4.197;6;110
2025-09-23;18:53:56;charging;4.197;6;110
2025-09-23;18:54:02;charging;4.197;6;110
2025-09-23;18:54:08;charging;4.197;6;110
2025-09-23;18:54:14;charging;4.197;6;111
2025-09-23;18:54:20;charging;4.197;5;111
2025-09-23;18:54:26;charging;4.197;6;111
2025-09-23;18:54:32;charging;4.197;6;111
2025-09-23;18:54:38;charging;4.197;5;111
2025-09-23;18:54:44;charging;4.197;6;111
2025-09-23;18:54:50;charging;4.197;5;111
2025-09-23;18:54:56;charging;4.197;5;111
2025-09-23;18:55:02;charging;4.197;5;111
2025-09-23;18:55:08;charging;4.197;5;111
2025-09-23;18:55:14;charging;4.197;5;112
2025-09-23;18:55:20;charging;4.197;5;112
2025-09-23;18:55:26;charging;4.197;5;112
2025-09-23;18:55:32;charging;4.197;5;112
2025-09-23;18:55:38;charging;4.197;5;112
2025-09-23;18:55:44;charging;4.197;5;112
2025-09-23;18:55:50;charging;4.197;6;112
2025-09-23;18:55:56;charging;4.196;5;112
2025-09-23;18:56:02;charging;4.197;5;112
2025-09-23;18:56:08;charging;4.197;5;112
2025-09-23;18:56:14;charging;4.197;5;112
2025-09-23;18:56:20;charging;4.197;5;113
2025-09-23;18:56:26;charging;4.197;6;113
2025-09-23;18:56:32;charging;4.197;5;113
2025-09-23;18:56:38;charging;4.197;5;113
2025-09-23;18:56:44;charging;4.197;5;113
2025-09-23;18:56:50;charging;4.197;5;113
2025-09-23;18:56:56;charging;4.197;5;113
2025-09-23;18:57:02;charging;4.197;5;113
2025-09-23;18:57:08;charging;4.197;5;113
2025-09-23;18:57:14;charging;4.197;5;113
2025-09-23;18:57:20;charging;4.197;5;114
2025-09-23;18:57:26;charging;4.197;5;114
2025-09-23;18:57:32;charging;4.197;6;114
2025-09-23;18:57:38;charging;4.197;5;114
2025-09-23;18:57:44;charging;4.197;5;114
2025-09-23;18:57:50;charging;4.197;5;114
2025-09-23;18:57:56;charging;4.197;5;114
2025-09-23;18:58:02;charging;4.197;5;114
2025-09-23;18:58:08;charging;4.197;5;114
2025-09-23;18:58:14;charging;4.197;5;114
2025-09-23;18:58:20;charging;4.197;5;115
2025-09-23;18:58:26;charging;4.197;5;115
2025-09-23;18:58:32;charging;4.197;5;115
2025-09-23;18:58:38;charging;4.197;5;115
2025-09-23;18:58:44;charging;4.197;5;115
2025-09-23;18:58:50;charging;4.197;5;115
2025-09-23;18:58:56;charging;4.197;5;115
2025-09-23;18:59:02;charging;4.197;6;115
2025-09-23;18:59:08;charging;4.197;6;115
2025-09-23;18:59:14;charging;4.197;5;115
2025-09-23;18:59:20;charging;4.197;5;116
2025-09-23;18:59:26;charging;4.196;5;116
2025-09-23;18:59:32;charging;4.197;5;116
2025-09-23;18:59:38;charging;4.197;5;116
2025-09-23;18:59:44;charging;4.197;5;116
2025-09-23;18:59:50;charging;4.197;5;116
2025-09-23;18:59:56;charging;4.197;5;116
2025-09-23;19:00:02;charging;4.197;5;116
2025-09-23;19:00:08;charging;4.197;5;116
2025-09-23;19:00:14;charging;4.197;6;116
2025-09-23;19:00:20;charging;4.197;6;117
2025-09-23;19:00:26;charging;4.197;6;117
2025-09-23;19:00:32;charging;4.197;6;117
2025-09-23;19:00:38;charging;4.197;6;117
2025-09-23;19:00:44;charging;4.197;6;117
2025-09-23;19:00:50;charging;4.196;6;117
2025-09-23;19:00:56;charging;4.197;6;117
2025-09-23;19:01:02;charging;4.197;6;117
2025-09-23;19:01:08;charging;4.197;6;117
2025-09-23;19:01:14;charging;4.197;6;117
2025-09-23;19:01:20;charging;4.197;6;118
2025-09-23;19:01:26;charging;4.197;6;118
2025-09-23;19:01:32;charging;4.197;6;118
2025-09-23;19:01:38;charging;4.197;6;118
2025-09-23;19:01:44;charging;4.197;5;118
2025-09-23;19:01:50;charging;4.197;5;118
2025-09-23;19:01:56;charging;4.197;5;118
2025-09-23;19:02:02;charging;4.197;5;118
2025-09-23;19:02:08;charging;4.197;5;118
2025-09-23;19:02:14;charging;4.197;5;118
2025-09-23;19:02:20;charging;4.197;5;119
2025-09-23;19:02:26;charging;4.197;5;119
2025-09-23;19:02:32;charging;4.197;5;119
2025-09-23;19:02:38;charging;4.197;5;119
2025-09-23;19:02:44;charging;4.197;5;119
2025-09-23;19:02:50;charging;4.197;5;119
2025-09-23;19:02:56;charging;4.197;5;119
2025-09-23;19:03:02;charging;4.197;5;119
2025-09-23;19:03:08;charging;4.197;5;119
2025-09-23;19:03:14;charging;4.197;5;119
2025-09-23;19:03:20;charging;4.197;5;120
2025-09-23;19:03:26;charging;4.197;5;120
2025-09-23;19:03:32;charging;4.197;5;120
2025-09-23;19:03:38;charging;4.197;5;120
2025-09-23;19:03:44;charging;4.197;5;120
2025-09-23;19:03:50;charging;4.197;5;120
2025-09-23;19:03:56;charging;4.197;5;120
2025-09-23;19:04:02;charging;4.197;5;120
2025-09-23;19:04:08;charging;4.197;5;120
2025-09-23;19:04:14;charging;4.197;5;120
2025-09-23;19:04:20;charging;4.197;5;120
2025-09-23;19:04:26;charging;4.197;5;120
2025-09-23;19:04:32;charging;4.197;6;121
2025-09-23;19:04:38;charging;4.197;6;121
2025-09-23;19:04:44;charging;4.197;5;121
2025-09-23;19:04:50;charging;4.197;5;121
2025-09-23;19:04:56;charging;4.197;5;121
2025-09-23;19:05:02;charging;4.197;5;121
2025-09-23;19:05:08;charging;4.197;5;121
2025-09-23;19:05:14;charging;4.197;6;121
2025-09-23;19:05:20;charging;4.197;6;121
2025-09-23;19:05:26;charging;4.197;5;121
2025-09-23;19:05:32;charging;4.197;6;122
2025-09-23;19:05:38;charging;4.197;5;122
2025-09-23;19:05:44;charging;4.197;5;122
2025-09-23;19:05:50;charging;4.197;5;122
2025-09-23;19:05:56;charging;4.197;5;122
2025-09-23;19:06:02;charging;4.197;5;122
2025-09-23;19:06:08;charging;4.197;5;122
2025-09-23;19:06:14;charging;4.197;5;122
2025-09-23;19:06:20;charging;4.197;5;122
2025-09-23;19:06:26;charging;4.197;5;122
2025-09-23;19:06:32;charging;4.197;5;122
2025-09-23;19:06:38;charging;4.197;5;123
2025-09-23;19:06:44;charging;4.197;5;123
2025-09-23;19:06:50;charging;4.197;5;123
2025-09-23;19:06:56;charging;4.197;5;123
2025-09-23;19:07:02;charging;4.197;5;123
2025-09-23;19:07:08;charging;4.197;5;123
2025-09-23;19:07:14;charging;4.197;5;123
2025-09-23;19:07:20;charging;4.197;6;123
2025-09-23;19:07:26;charging;4.197;6;123
2025-09-23;19:07:32;charging;4.197;6;123
2025-09-23;19:07:38;charging;4.197;6;124
2025-09-23;19:07:44;charging;4.197;5;124
2025-09-23;19:07:50;charging;4.197;6;124
2025-09-23;19:07:56;charging;4.197;5;124
2025-09-23;19:08:02;charging;4.197;5;124
2025-09-23;19:08:08;charging;4.197;5;124
2025-09-23;19:08:14;charging;4.197;6;124
2025-09-23;19:08:20;charging;4.197;6;124
2025-09-23;19:08:26;charging;4.197;5;124
2025-09-23;19:08:32;charging;4.197;5;124
2025-09-23;19:08:38;charging;4.197;5;125
2025-09-23;19:08:44;charging;4.197;5;125
2025-09-23;19:08:50;charging;4.197;5;125
2025-09-23;19:08:56;charging;4.197;5;125
2025-09-23;19:09:02;charging;4.197;5;125
2025-09-23;19:09:08;charging;4.197;5;125
2025-09-23;19:09:14;charging;4.197;5;125
2025-09-23;19:09:20;charging;4.197;5;125
2025-09-23;19:09:26;charging;4.197;5;125
2025-09-23;19:09:32;charging;4.197;5;125
2025-09-23;19:09:38;charging;4.197;5;125
2025-09-23;19:09:44;charging;4.197;5;125
2025-09-23;19:09:50;charging;4.197;5;126
2025-09-23;19:09:56;charging;4.197;5;126
2025-09-23;19:10:02;charging;4.197;5;126
2025-09-23;19:10:08;charging;4.197;5;126
2025-09-23;19:10:14;charging;4.197;5;126
2025-09-23;19:10:20;charging;4.197;5;126
2025-09-23;19:10:26;charging;4.197;6;126
2025-09-23;19:10:32;charging;4.197;5;126
2025-09-23;19:10:38;charging;4.197;5;126
2025-09-23;19:10:44;charging;4.197;4;126
2025-09-23;19:10:50;charging;4.197;5;126
2025-09-23;19:10:56;charging;4.197;4;127
2025-09-23;19:11:02;charging;4.197;4;127
2025-09-23;19:11:08;charging;4.197;4;127
2025-09-23;19:11:14;charging;4.197;4;127
2025-09-23;19:11:20;charging;4.197;5;127
2025-09-23;19:11:26;charging;4.197;4;127
2025-09-23;19:11:32;charging;4.197;4;127
2025-09-23;19:11:38;charging;4.197;4;127
2025-09-23;19:11:44;charging;4.197;4;127
2025-09-23;19:11:50;charging;4.197;4;127
2025-09-23;19:11:56;charging;4.197;4;127
2025-09-23;19:12:02;charging;4.197;4;127
2025-09-23;19:12:08;rest;3.85;0;127
2025-09-23;19:12:14;rest;3.85;0;127
2025-09-23;19:12:20;rest;3.85;0;127
2025-09-23;19:12:26;rest;3.85;0;127
2025-09-23;19:12:32;rest;3.85;0;127
2025-09-23;19:12:38;rest;3.85;0;127
2025-09-23;19:12:44;rest;3.85;0;127
2025-09-23;19:12:50;rest;3.85;0;127
2025-09-23;19:12:56;rest;3.85;0;127
2025-09-23;19:13:02;rest;3.85;0;127
2025-09-23;19:13:08;rest;3.85;0;127
2025-09-23;19:13:14;rest;3.85;0;127
2025-09-23;19:13:20;rest;3.85;0;127
2025-09-23;19:13:26;rest;3.85;0;127
2025-09-23;19:13:32;rest;3.85;0;127
2025-09-23;19:13:38;rest;3.85;0;127
2025-09-23;19:13:44;rest;3.85;0;127
2025-09-23;19:13:50;rest;3.85;0;127
2025-09-23;19:13:56;rest;3.85;0;127
2025-09-23;19:14:02;rest;3.849;0;127
2025-09-23;19:14:08;rest;3.85;0;127
2025-09-23;19:14:14;rest;3.85;0;127
2025-09-23;19:14:20;rest;3.849;0;127
2025-09-23;19:14:26;rest;3.85;0;127
2025-09-23;19:14:32;rest;3.85;0;127
2025-09-23;19:14:38;rest;3.85;0;127
2025-09-23;19:14:44;rest;3.85;0;127
2025-09-23;19:14:50;rest;3.85;0;127
2025-09-23;19:14:56;rest;3.85;0;127
2025-09-23;19:15:02;rest;3.85;0;127
2025-09-23;19:15:08;rest;3.85;0;127
2025-09-23;19:15:14;rest;3.85;0;127
2025-09-23;19:15:20;rest;3.85;0;127
2025-09-23;19:15:26;rest;3.85;0;127
2025-09-23;19:15:32;rest;3.849;0;127
2025-09-23;19:15:38;rest;3.85;0;127
2025-09-23;19:15:44;rest;3.85;0;127
2025-09-23;19:15:50;rest;3.85;0;127
2025-09-23;19:15:56;rest;3.849;0;127
2025-09-23;19:16:02;rest;3.85;0;127
2025-09-23;19:16:08;rest;3.85;0;127
2025-09-23;19:16:14;rest;3.85;0;127
2025-09-23;19:16:20;rest;3.85;0;127
2025-09-23;19:16:26;rest;3.85;0;127
2025-09-23;19:16:32;rest;3.85;0;127
2025-09-23;19:16:38;rest;3.85;0;127
2025-09-23;19:16:44;rest;3.85;0;127
2025-09-23;19:16:50;rest;3.85;0;127
2025-09-23;19:16:56;rest;3.849;0;127
2025-09-23;19:17:02;rest;3.85;0;127
2025-09-23;19:17:04;discharging;3.534;4;0
2025-09-23;19:17:06;discharging;3.361;24;0
2025-09-23;19:17:08;discharging;3.094;47;0
2025-09-23;19:17:10;discharging;3.042;50;0
2025-09-23;19:17:12;discharging;3.077;50;0
2025-09-23;19:17:14;discharging;3.073;50;1
2025-09-23;19:17:16;discharging;3.063;50;1
2025-09-23;19:17:18;discharging;3.06;50;1
2025-09-23;19:17:20;discharging;3.091;50;2
2025-09-23;19:17:22;discharging;3.07;49;2
2025-09-23;19:17:24;discharging;3.04;49;2
2025-09-23;19:17:26;discharging;3.048;49;2
2025-09-23;19:17:28;discharging;3.045;49;3
2025-09-23;19:17:30;discharging;3.053;49;3
2025-09-23;19:17:32;discharging;3.04;50;3
2025-09-23;19:17:34;discharging;3.062;49;3
2025-09-23;19:17:36;discharging;3.04;50;4
2025-09-23;19:17:38;discharging;3.044;50;4
2025-09-23;19:17:40;discharging;3.04;49;4
2025-09-23;19:17:42;discharging;3.055;49;5
2025-09-23;19:17:44;discharging;3.061;49;5
2025-09-23;19:17:46;discharging;3.056;49;5
2025-09-23;19:17:48;discharging;3.053;50;5
2025-09-23;19:17:50;discharging;3.016;49;6
2025-09-23;19:17:52;discharging;3.07;49;6
2025-09-23;19:17:54;discharging;3.04;49;6
2025-09-23;19:17:56;discharging;3.015;49;7
2025-09-23;19:17:58;discharging;3.01;50;7
2025-09-23;19:18:00;discharging;2.997;50;7
2025-09-23;19:18:02;finished;3.834;0;7
2025-09-23;19:18:04;finished;3.839;0;7
2025-09-23;19:18:06;finished;3.841;0;7
2025-09-23;19:18:08;finished;3.84;0;7